time [ms], AccX [g], AccY [g], AccZ [g], GyroX [deg/s], GyroY [deg/s], GyroZ [deg/s]
118838,1.06,-0.02,-0.05,0.12,-0.18,0.03
118841,1.22,-0.02,-0.08,-35.33,33.98,-101.46
118844,1.23,-0.02,-0.08,-36.66,43.53,-110.74
118847,1.23,-0.01,-0.09,-36.05,51.31,-119.38
118850,1.24,-0.00,-0.08,-34.96,58.30,-127.82
118854,1.24,-0.01,-0.07,-33.12,64.99,-138.83
118857,1.23,0.00,-0.04,-30.73,69.04,-151.81
118860,1.25,0.01,-0.06,-28.89,72.75,-161.91
118863,1.24,0.02,-0.08,-28.11,78.59,-171.36
118866,1.24,0.04,-0.08,-27.71,84.85,-176.62
118870,1.24,0.07,-0.05,-28.80,91.13,-178.57
118873,1.23,0.10,-0.06,-29.65,95.48,-176.48
118876,1.23,0.11,-0.04,-30.84,99.13,-171.70
118879,1.22,0.13,-0.04,-32.44,102.20,-164.52
118882,1.22,0.16,-0.04,-33.64,106.82,-155.50
118885,1.21,0.17,-0.03,-35.73,110.46,-143.81
118888,1.20,0.20,-0.05,-37.10,115.33,-130.65
118891,1.20,0.21,-0.04,-38.54,120.82,-116.01
118894,1.17,0.22,-0.03,-39.62,124.79,-100.14
118897,1.16,0.23,-0.02,-41.73,126.99,-84.04
118900,1.17,0.23,-0.02,-43.62,129.65,-68.14
118905,1.15,0.20,0.00,-46.61,130.14,-48.01
118908,1.15,0.20,0.02,-49.10,129.68,-33.75
118911,1.15,0.18,0.04,-50.64,128.38,-20.89
118914,1.15,0.17,0.04,-50.37,127.79,-8.88
118917,1.17,0.15,0.04,-49.51,126.92,2.25
118920,1.18,0.14,0.03,-48.14,127.22,11.78
118923,1.18,0.12,0.01,-46.58,128.24,20.39
118926,1.19,0.09,-0.00,-44.70,130.09,27.89
118929,1.19,0.09,-0.02,-42.52,132.53,34.10
118932,1.18,0.06,-0.02,-39.89,136.08,39.78
118935,1.18,0.06,-0.03,-37.12,140.08,45.09
118938,1.18,0.05,-0.04,-34.05,145.86,49.99
118942,1.18,0.05,-0.04,-30.12,156.84,55.43
118945,1.18,0.04,-0.03,-27.30,164.59,58.39
118948,1.18,0.04,-0.01,-24.34,170.88,61.45
118951,1.15,0.04,0.03,-20.20,176.27,64.09
118954,1.14,0.05,0.08,-15.33,178.26,65.92
118957,1.11,0.06,0.12,-10.57,177.39,67.29
118960,1.11,0.08,0.14,-5.24,174.55,68.96
118963,1.11,0.09,0.12,-0.49,174.18,69.26
118966,1.13,0.12,0.09,3.46,177.95,69.72
118969,1.13,0.11,0.08,6.69,184.92,68.90
118972,1.13,0.10,0.06,10.93,196.92,66.54
118976,1.15,0.07,0.07,15.54,208.67,63.09
118980,1.17,0.05,0.09,22.65,226.79,53.64
118983,1.18,0.04,0.12,27.24,239.11,44.38
118986,1.19,0.03,0.12,32.46,252.46,34.06
118989,1.20,0.03,0.15,36.09,266.52,23.17
118992,1.20,0.03,0.16,38.52,280.08,11.96
118995,1.18,0.03,0.16,40.09,293.31,0.24
118998,1.17,0.03,0.17,40.69,305.30,-11.23
119001,1.16,0.05,0.17,38.96,315.40,-23.59
119004,1.14,0.07,0.14,36.12,323.33,-34.65
119007,1.13,0.08,0.14,31.07,330.14,-44.51
119010,1.11,0.10,0.11,23.72,334.52,-53.56
119013,1.09,0.10,0.10,14.76,336.34,-61.03
119017,1.06,0.10,0.10,-1.80,333.72,-70.54
119020,0.98,0.13,0.10,-19.70,317.79,-71.75
119023,0.86,0.16,0.07,-42.92,290.15,-64.51
119026,0.83,0.15,0.07,-65.10,261.40,-49.67
119029,0.90,0.10,0.04,-82.11,239.65,-33.64
119032,1.01,0.05,0.03,-92.00,241.82,-24.16
119035,1.09,0.01,0.03,-95.31,244.14,-22.74
119038,1.14,-0.02,0.03,-97.16,259.74,-26.69
119041,1.16,-0.00,0.05,-99.70,275.65,-34.80
119045,1.15,0.01,0.10,-103.56,288.99,-43.49
119048,1.13,0.02,0.14,-108.58,297.62,-50.28
119051,1.09,0.04,0.19,-114.67,299.19,-53.30
119055,1.04,0.06,0.20,-125.38,295.51,-49.47
119058,1.02,0.08,0.21,-134.72,291.01,-43.06
119061,1.02,0.09,0.21,-142.86,287.42,-35.67
119064,1.02,0.11,0.24,-148.32,284.06,-29.10
119067,1.03,0.12,0.27,-147.96,281.48,-24.04
119070,1.04,0.14,0.32,-140.38,279.72,-21.17
119073,1.04,0.14,0.35,-125.99,278.21,-20.23
119076,1.04,0.13,0.35,-109.28,279.14,-19.53
119079,1.04,0.11,0.35,-94.38,283.53,-18.31
119082,1.04,0.09,0.33,-82.38,291.40,-15.84
119085,1.04,0.06,0.30,-75.12,302.75,-13.75
119090,1.06,0.03,0.28,-69.25,319.89,-11.91
119093,1.06,0.02,0.28,-67.53,330.52,-13.53
119096,1.08,0.01,0.29,-66.78,339.34,-16.60
119099,1.08,-0.01,0.30,-65.74,347.04,-20.59
119102,1.09,-0.01,0.31,-65.18,354.55,-26.65
119105,1.10,-0.02,0.32,-64.32,360.63,-32.26
119108,1.08,-0.02,0.33,-64.06,365.27,-38.45
119111,1.08,-0.01,0.34,-63.97,368.90,-43.75
119114,1.07,-0.01,0.36,-65.12,368.99,-47.87
119117,1.04,0.01,0.39,-67.13,366.85,-50.62
119120,1.03,0.01,0.41,-70.17,361.51,-52.31
119123,1.00,0.04,0.44,-74.20,354.06,-51.73
119127,0.99,0.06,0.48,-78.81,341.37,-49.30
119130,0.97,0.08,0.49,-81.41,330.09,-45.78
119133,0.96,0.08,0.48,-83.85,320.93,-41.03
119136,0.95,0.09,0.50,-86.03,311.98,-35.03
119139,0.93,0.11,0.52,-86.95,302.17,-26.69
119142,0.91,0.12,0.53,-85.16,293.33,-18.19
119145,0.90,0.13,0.55,-80.41,284.01,-9.03
119148,0.89,0.14,0.54,-73.64,278.11,0.59
119152,0.89,0.13,0.54,-65.73,275.36,10.18
119155,0.88,0.12,0.53,-57.45,276.96,19.35
119158,0.87,0.10,0.53,-49.85,280.76,27.64
119162,0.85,0.09,0.54,-40.51,287.34,35.55
119165,0.86,0.08,0.53,-36.72,292.23,39.34
119168,0.87,0.07,0.53,-34.84,297.65,40.33
119171,0.90,0.06,0.54,-35.15,304.27,38.87
119174,0.92,0.04,0.53,-36.35,312.70,34.21
119177,0.95,0.02,0.52,-38.46,323.63,26.47
119180,0.97,0.01,0.53,-40.80,337.10,16.25
119183,0.97,0.00,0.53,-42.02,349.76,5.55
119186,0.96,0.01,0.53,-42.98,362.08,-5.88
119189,0.94,0.01,0.55,-42.76,373.89,-18.26
119192,0.93,0.01,0.56,-42.26,384.11,-29.67
119195,0.91,0.02,0.57,-40.89,390.67,-39.99
119199,0.88,0.03,0.59,-37.38,397.60,-52.63
119202,0.85,0.04,0.60,-35.13,400.21,-59.43
119206,0.82,0.05,0.60,-33.68,399.94,-64.68
119209,0.79,0.06,0.62,-33.13,397.98,-67.01
119212,0.77,0.06,0.62,-34.70,393.30,-67.82
119215,0.74,0.07,0.63,-37.59,388.47,-67.29
119218,0.72,0.06,0.61,-41.56,383.50,-64.49
119221,0.72,0.06,0.62,-45.12,380.20,-60.75
119224,0.71,0.05,0.63,-49.79,378.06,-56.46
119227,0.71,0.05,0.63,-54.38,375.42,-51.97
119230,0.71,0.04,0.64,-58.72,371.85,-47.50
119234,0.72,0.03,0.66,-62.81,366.53,-43.70
119238,0.74,0.01,0.66,-68.06,358.44,-39.30
119241,0.76,0.01,0.66,-71.25,353.62,-36.66
119244,0.77,0.00,0.65,-74.44,350.88,-33.75
119247,0.77,0.00,0.67,-77.45,348.78,-29.93
119250,0.76,0.01,0.67,-80.54,347.05,-24.49
119253,0.72,0.02,0.68,-84.05,344.95,-17.18
119256,0.70,0.03,0.70,-86.67,343.66,-8.66
119259,0.68,0.04,0.71,-88.93,342.06,1.22
119262,0.67,0.07,0.72,-90.05,341.05,11.57
119265,0.66,0.08,0.76,-89.57,340.44,22.13
119268,0.65,0.10,0.78,-86.11,339.48,32.22
119271,0.64,0.11,0.81,-78.84,337.80,40.85
119276,0.63,0.10,0.82,-64.67,336.87,50.33
119279,0.63,0.09,0.82,-53.59,339.28,55.60
119282,0.65,0.06,0.81,-43.93,345.30,57.67
119285,0.67,0.03,0.81,-35.21,352.49,57.63
119288,0.68,0.01,0.80,-28.75,362.49,55.37
119291,0.67,-0.01,0.79,-23.25,373.21,50.97
119294,0.66,-0.02,0.79,-19.09,382.90,45.80
119297,0.65,-0.02,0.80,-15.73,391.02,39.81
119300,0.65,-0.02,0.82,-13.07,399.97,33.11
119303,0.66,-0.03,0.83,-10.63,408.43,26.45
119306,0.67,-0.03,0.84,-8.96,415.72,17.66
119310,0.66,-0.01,0.87,-8.28,421.14,6.51
119313,0.63,0.01,0.89,-8.93,420.35,-0.83
119316,0.58,0.03,0.91,-11.51,415.72,-5.39
119319,0.54,0.05,0.92,-16.00,406.44,-7.94
119322,0.51,0.06,0.94,-22.54,394.23,-8.23
119326,0.47,0.07,0.94,-29.67,379.07,-6.59
119329,0.44,0.08,0.94,-38.93,362.32,-2.51
119332,0.42,0.08,0.95,-48.51,343.69,3.90
119335,0.38,0.09,0.96,-59.41,324.76,12.03
119338,0.35,0.08,0.96,-69.99,305.13,22.53
119341,0.33,0.08,0.97,-78.83,287.28,34.77
119344,0.34,0.07,0.96,-85.99,270.34,47.12
119348,0.37,0.06,0.98,-91.38,253.37,62.93
119351,0.43,0.04,0.97,-92.57,243.72,73.32
119354,0.46,0.03,0.97,-91.94,244.75,81.98
119357,0.48,0.04,0.96,-90.08,247.05,89.38
119360,0.49,0.04,0.94,-88.52,252.12,96.28
119363,0.48,0.04,0.93,-85.62,260.90,102.97
119366,0.46,0.06,0.92,-83.45,268.01,109.92
119369,0.43,0.08,0.91,-81.22,274.85,116.91
119372,0.39,0.09,0.91,-79.96,280.12,124.47
119375,0.35,0.09,0.91,-79.24,284.03,132.38
119378,0.30,0.10,0.92,-79.62,285.14,139.69
119382,0.25,0.09,0.91,-80.00,284.11,146.91
119386,0.19,0.08,0.91,-79.09,281.59,155.75
119389,0.15,0.06,0.90,-77.15,279.01,160.65
119392,0.12,0.04,0.90,-74.03,277.85,164.01
119395,0.11,0.01,0.91,-69.28,276.49,164.36
119398,0.10,-0.01,0.91,-64.28,274.75,163.40
119401,0.10,-0.03,0.91,-59.33,272.61,159.63
119404,0.09,-0.06,0.94,-54.84,267.76,154.62
119408,0.08,-0.08,0.96,-49.91,259.60,146.32
119411,0.07,-0.09,0.99,-45.76,246.34,135.99
119414,0.06,-0.11,1.01,-42.43,238.05,124.50
119417,0.06,-0.13,1.03,-39.44,220.55,111.49
119421,0.06,-0.14,1.05,-37.60,202.67,98.09
119440,-0.04,-0.04,1.13,-48.66,76.37,45.86
119443,-0.05,-0.01,1.12,-53.67,55.14,44.80
119446,-0.07,0.01,1.11,-59.15,35.95,45.29
119449,-0.08,0.03,1.10,-64.90,18.00,47.49
119452,-0.09,0.04,1.09,-71.27,0.18,50.53
119455,-0.10,0.04,1.09,-77.70,-18.28,54.21
119458,-0.09,0.05,1.10,-84.60,-38.72,57.77
119461,-0.10,0.03,1.11,-90.98,-60.20,61.05
119464,-0.08,0.02,1.12,-97.42,-84.38,63.28
119467,-0.08,0.01,1.15,-102.96,-111.05,64.67
119470,-0.08,-0.00,1.16,-108.12,-141.28,64.96
119474,-0.08,-0.01,1.15,-114.64,-189.41,64.64
119477,-0.08,-0.02,1.16,-119.31,-222.84,64.13
119480,-0.08,-0.03,1.13,-124.06,-257.18,64.57
119483,-0.08,-0.03,1.09,-127.71,-287.30,65.61
119486,-0.08,-0.03,1.08,-129.89,-316.00,67.87
119490,-0.10,-0.04,1.04,-130.09,-339.54,70.35
119493,-0.10,-0.04,1.01,-129.27,-360.23,74.39
119496,-0.11,-0.05,0.99,-127.77,-378.50,78.21
119499,-0.12,-0.05,0.95,-126.70,-391.57,83.41
119502,-0.13,-0.06,0.89,-125.76,-400.73,89.89
119505,-0.15,-0.05,0.88,-124.02,-406.64,98.04
119509,-0.15,-0.08,0.88,-121.50,-412.70,108.39
119512,-0.14,-0.09,0.91,-120.61,-418.76,111.46
119515,-0.11,-0.10,0.92,-121.28,-426.61,112.64
119518,-0.09,-0.11,0.95,-123.18,-438.03,111.40
119521,-0.06,-0.12,0.96,-127.36,-455.05,107.35
119524,-0.02,-0.13,0.95,-134.31,-471.42,101.19
119527,0.04,-0.15,0.88,-143.42,-481.80,93.22
119530,0.08,-0.17,0.83,-153.51,-483.60,85.12
119533,0.12,-0.18,0.81,-163.18,-482.35,76.32
119537,0.16,-0.19,0.80,-172.31,-479.42,65.90
119540,0.21,-0.19,0.81,-181.16,-476.03,53.67
119544,0.25,-0.19,0.86,-187.07,-473.15,36.45
119547,0.28,-0.18,0.88,-189.96,-475.15,23.99
119551,0.30,-0.17,0.91,-191.13,-479.39,11.90
119554,0.33,-0.16,0.93,-193.27,-486.46,0.91
119557,0.36,-0.15,0.92,-196.73,-494.40,-8.63
119560,0.39,-0.14,0.91,-202.25,-504.06,-17.27
119564,0.43,-0.14,0.89,-208.34,-505.22,-23.47
119567,0.48,-0.15,0.89,-213.96,-505.22,-27.88
119571,0.51,-0.16,0.91,-217.67,-505.22,-29.52
119574,0.55,-0.15,0.91,-220.17,-505.22,-28.81
119578,0.57,-0.14,0.92,-222.47,-505.22,-26.25
119582,0.62,-0.12,0.87,-229.97,-505.22,-18.83
119585,0.64,-0.11,0.83,-236.75,-505.22,-11.65
119588,0.66,-0.12,0.81,-244.60,-505.22,-3.10
119591,0.68,-0.12,0.79,-251.76,-505.22,6.42
119595,0.69,-0.13,0.76,-258.28,-505.22,17.11
119598,0.71,-0.14,0.73,-264.86,-505.22,28.91
119602,0.72,-0.15,0.71,-270.96,-505.22,39.55
119605,0.75,-0.16,0.63,-277.79,-505.22,48.65
119608,0.79,-0.20,0.56,-284.90,-505.22,55.43
119612,0.83,-0.25,0.48,-291.99,-505.22,60.01
119615,0.87,-0.29,0.38,-297.48,-505.22,64.13
119619,0.91,-0.35,0.34,-300.37,-505.22,66.28
119622,0.95,-0.40,0.35,-297.70,-505.22,62.38
119625,0.97,-0.44,0.35,-291.45,-505.22,55.09
119629,0.99,-0.46,0.37,-281.44,-505.22,46.83
119632,0.97,-0.46,0.39,-267.19,-505.22,37.84
119635,0.96,-0.46,0.42,-251.12,-505.22,29.35
119639,0.93,-0.43,0.45,-235.96,-505.22,21.29
119642,0.91,-0.40,0.44,-224.60,-505.22,15.20
119646,0.89,-0.39,0.42,-216.99,-505.22,10.80
119649,0.86,-0.37,0.40,-212.00,-505.22,8.10
119652,0.85,-0.37,0.37,-208.14,-505.22,6.22
119656,0.81,-0.36,0.33,-203.60,-505.22,4.35
119659,0.80,-0.37,0.29,-200.55,-505.22,2.85
119663,0.79,-0.39,0.25,-198.63,-505.22,0.56
119666,0.79,-0.42,0.20,-196.02,-504.18,-1.49
119669,0.78,-0.44,0.17,-193.19,-496.67,-4.89
119672,0.78,-0.47,0.15,-188.61,-487.73,-9.30
119676,0.77,-0.50,0.15,-182.90,-481.16,-14.74
119679,0.79,-0.52,0.11,-178.99,-477.07,-22.40
119683,0.82,-0.53,0.10,-174.28,-475.37,-31.78
119686,0.86,-0.52,0.06,-170.70,-474.05,-44.08
119690,0.91,-0.53,0.02,-167.96,-473.05,-58.62
119694,0.98,-0.52,0.01,-161.21,-474.06,-79.49
119697,1.00,-0.51,0.01,-155.04,-476.99,-94.66
119700,1.02,-0.49,-0.00,-148.95,-481.66,-107.76
119704,1.02,-0.45,0.01,-143.59,-488.76,-121.26
119707,1.05,-0.41,0.00,-140.22,-498.60,-132.42
119711,1.04,-0.38,0.01,-137.74,-505.22,-141.10
119714,1.04,-0.36,-0.02,-135.82,-505.22,-146.84
119718,1.04,-0.32,-0.07,-134.03,-505.22,-147.97
119722,1.03,-0.33,-0.13,-133.82,-501.79,-144.46
119725,1.03,-0.33,-0.18,-133.02,-479.33,-139.84
119729,1.04,-0.32,-0.18,-128.63,-451.33,-135.43
119733,1.04,-0.33,-0.18,-119.50,-406.14,-128.91
119736,1.03,-0.34,-0.17,-112.61,-371.80,-124.28
119740,1.03,-0.35,-0.15,-105.53,-337.48,-120.68
119744,1.02,-0.36,-0.13,-95.57,-299.05,-118.05
119747,1.01,-0.38,-0.10,-85.28,-265.66,-118.05
119751,1.00,-0.39,-0.08,-75.01,-235.24,-120.10
119754,0.98,-0.38,-0.07,-66.12,-208.66,-123.00
119758,0.96,-0.38,-0.05,-57.57,-185.85,-125.17
119761,0.95,-0.37,-0.06,-49.41,-164.41,-127.55
119765,0.92,-0.37,-0.06,-41.25,-145.18,-129.13
119768,0.91,-0.36,-0.06,-32.69,-124.76,-130.16
119773,0.92,-0.35,-0.07,-24.37,-101.05,-131.67
119776,0.93,-0.35,-0.08,-20.40,-86.70,-133.26
119779,0.95,-0.34,-0.09,-17.73,-73.77,-137.10
119782,0.97,-0.33,-0.09,-15.71,-62.40,-142.39
119786,0.99,-0.32,-0.10,-14.03,-51.05,-150.65
119789,1.01,-0.32,-0.09,-13.15,-41.08,-160.17
119793,1.05,-0.31,-0.10,-13.18,-31.54,-169.17
119796,1.08,-0.31,-0.10,-13.62,-22.05,-178.86
119800,1.11,-0.29,-0.09,-13.73,-13.88,-187.12
119803,1.13,-0.27,-0.07,-13.82,-7.01,-193.43
119807,1.16,-0.25,-0.03,-11.85,1.19,-197.06
119810,1.16,-0.24,-0.02,-9.31,5.16,-197.17
119813,1.15,-0.21,0.00,-6.28,7.43,-194.14
119816,1.16,-0.18,0.01,-3.16,9.08,-188.63
119819,1.16,-0.15,0.01,-0.44,12.06,-180.40
119822,1.16,-0.14,0.00,2.43,15.82,-169.27
119825,1.18,-0.14,-0.01,5.01,23.62,-156.80
119829,1.20,-0.15,-0.03,8.38,36.75,-142.74
119832,1.21,-0.16,-0.03,13.34,53.97,-126.84
119835,1.22,-0.17,-0.01,19.72,72.92,-111.78
119838,1.22,-0.17,0.02,28.18,92.32,-96.60
119842,1.21,-0.17,0.03,35.97,108.56,-84.97
119846,1.20,-0.17,0.04,46.79,130.82,-71.81
119849,1.19,-0.17,0.04,53.27,145.21,-66.43
119852,1.19,-0.17,0.03,58.07,159.83,-64.43
119855,1.20,-0.17,0.02,62.06,176.14,-65.13
119858,1.21,-0.19,-0.01,64.41,197.19,-67.91
119861,1.23,-0.19,-0.05,65.54,225.68,-72.34
119864,1.23,-0.21,-0.06,66.75,255.24,-78.39
119868,1.25,-0.24,-0.08,67.85,290.35,-87.41
119871,1.26,-0.24,-0.07,69.11,325.39,-99.87
119874,1.28,-0.25,-0.05,71.10,359.25,-113.73
119878,1.29,-0.25,-0.03,73.53,387.69,-128.33
119882,1.30,-0.22,-0.03,75.27,422.90,-147.99
119885,1.30,-0.19,-0.04,74.49,442.53,-157.55
119888,1.29,-0.16,-0.04,71.91,462.26,-165.04
119891,1.31,-0.15,-0.05,70.36,482.03,-168.94
119895,1.33,-0.11,-0.06,69.14,495.31,-170.28
119898,1.37,-0.10,-0.10,68.52,495.31,-169.27
119901,1.42,-0.11,-0.11,69.92,495.31,-167.47
119905,1.48,-0.14,-0.09,74.03,495.31,-165.78
119908,1.48,-0.24,-0.00,79.56,495.31,-171.67
119911,1.48,-0.18,0.01,86.64,495.31,-175.21
119915,1.45,-0.13,0.03,93.25,495.31,-172.65
119918,1.43,-0.09,0.02,100.35,495.31,-165.06
119922,1.36,-0.11,0.10,116.56,495.31,-155.55
119925,1.33,-0.17,0.27,126.04,495.31,-152.26
119928,1.33,-0.15,0.21,132.58,495.31,-155.41
119932,1.23,-0.13,0.27,135.97,495.31,-155.79
119935,1.19,-0.12,0.33,140.01,495.31,-155.30
119938,1.13,-0.09,0.42,143.85,495.31,-155.94
119942,1.07,-0.03,0.46,146.38,495.31,-153.46
119945,1.03,0.02,0.48,146.00,495.31,-146.62
119948,0.98,0.06,0.53,143.68,495.31,-138.14
119952,0.97,0.06,0.58,139.04,495.31,-130.14
119955,0.98,0.07,0.60,134.55,495.31,-124.22
119959,1.01,0.04,0.69,128.61,495.31,-121.75
119962,1.03,0.06,0.67,124.84,495.31,-120.37
119965,1.02,0.07,0.65,121.77,495.31,-118.62
119968,1.00,0.06,0.66,117.95,495.31,-117.21
119971,0.98,0.06,0.64,112.40,495.31,-116.34
119975,0.91,0.05,0.66,105.30,495.31,-115.76
119978,0.85,0.05,0.69,97.46,495.31,-115.87
119981,0.77,0.08,0.72,88.88,495.31,-111.43
119984,0.68,0.11,0.77,79.82,495.31,-102.83
119987,0.62,0.12,0.82,71.59,495.31,-92.54
119991,0.57,0.12,0.86,63.05,495.31,-81.55
119995,0.52,0.12,0.92,53.04,495.31,-65.06
119998,0.49,0.10,0.95,48.17,495.31,-53.81
120001,0.47,0.09,0.96,43.40,495.31,-42.37
120004,0.46,0.07,0.91,38.03,482.66,-30.26
120007,0.45,0.04,0.83,31.65,456.21,-15.85
120010,0.45,0.02,0.80,26.44,438.26,-2.16
120013,0.46,0.01,0.77,22.64,426.32,11.06
120016,0.48,0.00,0.75,19.83,419.10,23.46
120019,0.50,-0.01,0.74,19.07,417.04,31.29
120022,0.51,-0.02,0.74,18.35,419.40,37.80
120025,0.52,-0.02,0.71,17.86,426.30,42.07
120028,0.54,-0.00,0.71,16.41,435.63,43.51
120047,0.60,-0.07,0.75,0.21,464.05,-4.95
120050,0.60,-0.08,0.77,-3.44,465.43,-18.17
120053,0.61,-0.10,0.80,-5.89,463.63,-31.56
120056,0.60,-0.10,0.83,-6.81,459.85,-43.07
120059,0.57,-0.09,0.86,-6.38,452.44,-53.15
120062,0.56,-0.09,0.88,-5.01,444.23,-61.35
120065,0.54,-0.09,0.90,-2.28,435.24,-67.96
120069,0.54,-0.09,0.93,0.46,427.07,-72.55
120072,0.53,-0.10,0.94,3.46,421.42,-75.68
120075,0.52,-0.09,0.94,6.49,416.99,-76.81
120078,0.51,-0.07,0.94,9.14,413.22,-76.23
120081,0.48,-0.06,0.97,12.99,407.05,-72.62
120085,0.42,-0.05,1.01,20.26,393.30,-65.72
120088,0.40,-0.01,1.04,24.65,380.64,-59.41
120091,0.39,0.01,1.05,27.27,365.25,-53.03
120094,0.39,0.03,1.06,28.07,350.24,-47.23
120097,0.40,0.04,1.07,27.72,335.69,-42.11
120100,0.40,0.05,1.07,26.56,322.78,-36.78
120103,0.42,0.06,1.05,25.43,314.08,-33.33
120106,0.44,0.05,1.03,24.90,309.48,-30.57
120109,0.45,0.06,1.00,24.15,309.88,-28.89
120112,0.45,0.06,0.99,22.53,315.21,-26.75
120115,0.44,0.07,0.98,20.96,322.34,-25.03
120118,0.43,0.07,0.96,18.81,332.93,-22.69
120122,0.43,0.07,0.96,15.31,348.43,-21.04
120126,0.41,0.08,0.99,12.82,357.88,-20.05
120129,0.38,0.08,1.02,10.24,361.77,-18.95
120132,0.35,0.08,1.07,8.95,359.66,-19.10
120135,0.33,0.08,1.11,7.42,350.66,-19.85
120138,0.29,0.06,1.15,6.12,336.11,-20.13
120141,0.25,0.05,1.17,4.41,315.53,-19.79
120144,0.25,0.03,1.17,2.18,293.31,-20.17
120147,0.27,0.03,1.13,-1.15,271.82,-20.36
120150,0.29,0.01,1.11,-5.31,254.29,-21.62
120153,0.32,0.00,1.09,-8.92,239.36,-22.78
120156,0.33,-0.01,1.09,-11.59,228.41,-23.27
120160,0.31,0.00,1.07,-12.69,216.84,-21.43
120163,0.28,0.02,1.05,-13.12,210.90,-18.20
120166,0.25,0.05,1.04,-12.96,207.19,-12.14
120169,0.23,0.07,1.02,-13.36,204.15,-4.59
120172,0.18,0.09,1.03,-14.28,200.95,5.45
120175,0.15,0.11,1.05,-16.02,195.72,16.03
120178,0.12,0.11,1.08,-18.89,186.12,27.22
120181,0.10,0.10,1.12,-22.23,172.63,37.90
120184,0.08,0.09,1.15,-25.60,154.47,48.25
120187,0.07,0.07,1.19,-29.57,130.63,57.57
120190,0.05,0.06,1.20,-33.74,103.82,65.48
120193,0.04,0.04,1.23,-38.44,71.79,72.03
120197,0.04,0.02,1.26,-46.93,20.98,77.83
120200,0.05,0.02,1.26,-54.43,-18.11,79.84
120203,0.05,0.02,1.27,-62.61,-57.25,80.57
120206,0.06,0.02,1.25,-71.77,-97.01,80.99
120209,0.05,0.03,1.22,-81.21,-137.59,81.19
120212,0.05,0.04,1.21,-90.41,-176.64,81.54
120216,0.06,0.06,1.19,-99.12,-216.99,83.61
120219,0.05,0.07,1.20,-105.50,-255.48,85.66
120222,0.05,0.08,1.20,-109.94,-294.72,88.48
120225,0.05,0.09,1.19,-112.37,-333.10,91.66
120228,0.05,0.10,1.19,-114.57,-373.37,95.72
120231,0.05,0.09,1.16,-116.08,-411.15,99.00
120235,0.07,0.08,1.11,-117.57,-460.47,103.26
120238,0.08,0.04,1.09,-117.28,-494.28,105.09
120241,0.08,0.02,1.05,-115.50,-505.22,108.13
120244,0.09,0.00,1.02,-113.33,-505.22,111.12
120247,0.09,-0.01,1.01,-109.67,-505.22,114.96
120250,0.08,-0.02,0.99,-104.31,-505.22,119.34
120253,0.07,-0.03,0.97,-97.74,-505.22,124.41
120256,0.06,-0.04,0.95,-91.65,-505.22,129.83
120259,0.05,-0.05,0.94,-86.55,-505.22,135.51
120262,0.06,-0.07,0.93,-82.06,-505.22,139.12
120265,0.05,-0.11,0.92,-77.31,-505.22,141.05
120270,0.05,-0.11,0.89,-71.80,-505.22,143.05
120273,0.07,-0.11,0.83,-69.44,-505.22,144.74
120276,0.09,-0.14,0.77,-67.28,-505.22,144.88
120279,0.11,-0.16,0.72,-66.09,-505.22,144.28
120282,0.13,-0.18,0.69,-66.52,-505.22,142.42
120285,0.16,-0.19,0.72,-69.48,-505.22,139.66
120288,0.18,-0.20,0.73,-73.96,-505.22,135.61
120291,0.21,-0.20,0.76,-79.82,-505.22,130.44
120294,0.23,-0.19,0.80,-87.01,-505.22,123.93
120297,0.27,-0.19,0.84,-93.47,-505.22,114.77
120300,0.32,-0.16,0.87,-99.10,-505.22,104.30
120304,0.39,-0.10,0.80,-108.90,-505.22,89.35
120307,0.40,-0.09,0.83,-113.57,-505.22,80.64
120311,0.46,-0.09,0.75,-119.30,-505.22,71.87
120314,0.49,-0.09,0.82,-124.52,-505.22,65.61
120317,0.54,-0.11,0.84,-129.70,-505.22,58.18
120320,0.55,-0.13,0.87,-134.60,-505.22,50.68
120323,0.57,-0.12,0.86,-140.44,-505.22,45.86
120327,0.59,-0.10,0.87,-148.67,-505.22,42.90
120330,0.63,-0.07,0.85,-157.30,-505.22,42.09
120333,0.63,-0.05,0.83,-164.69,-505.22,43.61
120337,0.64,-0.04,0.83,-170.34,-505.22,47.11
120341,0.64,-0.02,0.80,-174.41,-505.22,54.62
120344,0.64,-0.01,0.79,-173.74,-505.22,59.99
120347,0.64,-0.01,0.77,-173.71,-505.22,64.61
120350,0.65,0.01,0.74,-171.39,-505.22,67.95
120353,0.68,0.01,0.71,-171.57,-505.22,67.46
120357,0.71,-0.00,0.68,-174.09,-505.22,63.55
120360,0.75,-0.03,0.62,-176.73,-505.22,54.01
120364,0.78,-0.06,0.56,-179.85,-505.22,40.24
120367,0.85,-0.13,0.47,-180.28,-505.22,22.10
120370,0.89,-0.18,0.39,-179.89,-505.22,1.12
120374,0.91,-0.22,0.33,-174.66,-505.22,-20.72
120378,0.98,-0.27,0.20,-168.55,-505.22,-52.05
120381,1.02,-0.31,0.10,-172.66,-505.22,-73.81
120384,1.06,-0.33,0.07,-179.31,-505.22,-96.51
120388,1.09,-0.35,0.04,-180.49,-505.22,-120.11
120391,1.14,-0.37,0.03,-183.02,-505.22,-146.72
120395,1.14,-0.37,0.06,-178.75,-505.22,-169.47
120398,1.12,-0.35,0.08,-171.73,-505.22,-185.61
120402,1.11,-0.30,0.10,-160.43,-505.22,-194.84
120405,1.08,-0.25,0.13,-145.35,-505.22,-198.42
120409,1.09,-0.21,0.16,-134.06,-505.22,-199.12
120413,1.08,-0.15,0.17,-125.73,-476.57,-195.47
120417,1.09,-0.08,0.13,-117.89,-439.24,-185.99
120420,1.10,-0.05,0.09,-113.94,-417.05,-177.62
120423,1.11,-0.02,0.07,-110.70,-395.30,-168.23
120427,1.10,-0.01,-0.02,-105.25,-365.71,-155.59
120430,1.10,-0.00,-0.06,-96.90,-332.08,-140.19
120434,1.10,-0.02,-0.13,-85.80,-294.87,-123.76
120438,1.09,-0.03,-0.12,-72.92,-257.71,-107.78
120441,1.08,-0.05,-0.13,-56.20,-218.23,-90.16
120444,1.07,-0.08,-0.13,-39.93,-181.19,-73.58
120448,1.07,-0.12,-0.11,-24.96,-146.73,-57.93
120451,1.07,-0.15,-0.07,-12.83,-114.69,-43.91
120456,1.08,-0.19,-0.05,-1.67,-73.02,-28.48
120459,1.09,-0.20,-0.08,2.62,-42.57,-21.35
120462,1.11,-0.21,-0.09,5.53,-7.70,-16.66
120465,1.13,-0.22,-0.11,7.54,30.75,-14.52
120468,1.16,-0.23,-0.10,8.67,68.43,-15.68
120471,1.20,-0.24,-0.14,7.27,112.58,-18.16
120474,1.21,-0.25,-0.19,3.25,166.17,-20.80
120477,1.25,-0.24,-0.21,-2.02,223.21,-23.32
120480,1.26,-0.23,-0.19,-7.27,282.06,-27.94
120484,1.28,-0.22,-0.17,-9.60,339.04,-33.94
120487,1.28,-0.21,-0.14,-8.60,395.39,-40.25
120491,1.26,-0.19,-0.09,-1.86,466.61,-49.43
120494,1.25,-0.17,-0.06,4.69,495.31,-54.95
120497,1.21,-0.16,-0.07,10.93,495.31,-60.14
120500,1.20,-0.16,-0.05,16.44,495.31,-64.59
120503,1.19,-0.14,-0.04,19.68,495.31,-69.85
120507,1.20,-0.13,-0.04,19.17,495.31,-77.04
120510,1.20,-0.13,-0.05,14.18,495.31,-85.38
120513,1.28,-0.16,-0.16,7.53,495.31,-97.30
120516,1.26,-0.19,-0.17,0.26,495.31,-113.52
120520,1.24,-0.21,-0.06,-5.22,495.31,-131.44
120523,1.21,-0.19,0.04,-9.80,495.31,-149.36
120527,1.17,-0.13,0.10,-14.76,495.31,-166.40
120530,1.13,-0.09,0.19,-16.25,495.31,-175.87
120533,1.10,-0.06,0.25,-15.18,495.31,-182.31
120537,1.06,-0.04,0.31,-11.68,495.31,-187.59
120540,1.01,-0.02,0.37,-7.80,495.31,-189.85
120543,1.01,-0.02,0.33,-2.51,495.31,-194.48
120546,0.94,-0.13,0.73,7.02,495.31,-207.55
120550,0.92,-0.04,0.67,15.59,495.31,-210.92
120553,0.89,-0.05,0.71,24.40,495.31,-208.66
120556,0.91,-0.12,0.73,36.04,495.31,-209.35
120560,0.91,-0.16,0.80,47.65,495.31,-214.63
120563,0.86,-0.14,0.86,62.76,495.31,-220.48
120567,0.98,-0.12,0.81,76.72,495.31,-232.95
120570,0.99,-0.08,0.72,83.22,495.31,-236.08
120573,1.00,-0.11,0.71,89.10,495.31,-238.02
120576,1.00,-0.10,0.67,94.26,495.31,-236.55
120579,0.99,-0.06,0.61,100.01,495.31,-229.13
120583,0.97,-0.01,0.59,105.63,495.31,-214.37
120586,0.93,0.02,0.64,113.05,495.31,-195.59
120589,0.88,0.09,0.66,118.14,495.31,-173.55
120593,0.83,0.14,0.66,122.07,495.31,-149.29
120596,0.79,0.15,0.68,121.83,495.31,-125.47
120599,0.76,0.19,0.69,118.41,495.31,-103.49
120604,0.67,0.21,0.73,109.39,495.31,-73.78
120607,0.62,0.22,0.75,100.96,495.31,-55.59
120610,0.59,0.26,0.76,93.65,495.31,-38.30
120613,0.57,0.26,0.80,86.38,495.31,-21.32
120616,0.56,0.25,0.80,80.87,495.31,-7.47
120619,0.56,0.25,0.79,77.34,495.31,4.19
120622,0.56,0.23,0.81,75.82,495.31,13.14
120625,0.56,0.21,0.84,75.51,495.31,18.87
120628,0.55,0.20,0.84,75.33,495.31,22.24
120631,0.54,0.19,0.86,74.72,495.31,23.00
120634,0.52,0.16,0.90,73.46,495.31,23.28
120637,0.51,0.14,0.91,72.40,495.31,22.12
120656,0.44,0.02,1.12,67.80,449.82,18.06
120659,0.43,0.04,1.10,65.48,417.37,19.25
120662,0.43,0.03,1.11,63.22,385.27,19.99
120665,0.42,0.04,1.10,60.43,352.44,21.90
120668,0.39,0.06,1.10,58.07,319.13,25.08
120671,0.37,0.06,1.11,56.30,286.03,29.80
120674,0.34,0.08,1.15,54.75,248.46,36.25
120677,0.32,0.09,1.15,53.60,214.44,44.96
120680,0.31,0.10,1.15,52.17,178.12,54.21
120683,0.29,0.11,1.16,49.10,143.50,64.38
120686,0.28,0.13,1.15,44.41,107.92,75.80
120689,0.26,0.13,1.14,39.22,74.53,87.69
120694,0.25,0.14,1.12,29.02,30.82,103.93
120697,0.23,0.14,1.11,21.45,-0.92,116.25
120700,0.20,0.15,1.10,13.85,-30.46,128.48
120703,0.19,0.15,1.10,6.67,-60.69,138.18
120706,0.18,0.15,1.10,0.47,-91.92,147.29
120709,0.19,0.15,1.10,-4.78,-125.01,153.89
120712,0.19,0.15,1.11,-8.98,-161.12,158.65
120715,0.20,0.14,1.12,-12.89,-197.50,159.48
120718,0.21,0.12,1.11,-16.87,-235.31,156.35
120721,0.25,0.09,1.09,-20.80,-271.85,150.57
120724,0.27,0.07,1.07,-23.07,-309.08,141.02
120727,0.30,0.03,1.07,-22.78,-344.31,128.48
120731,0.33,0.00,1.08,-16.63,-396.58,108.13
120734,0.35,-0.00,1.07,-9.94,-432.69,92.61
120737,0.35,0.01,1.05,-3.38,-468.66,78.77
120740,0.37,0.03,1.04,2.85,-505.22,66.61
120743,0.38,0.05,1.00,8.40,-505.22,56.33
120746,0.38,0.07,0.97,12.30,-505.22,48.28
120749,0.38,0.08,0.95,16.07,-505.22,42.22
120752,0.37,0.08,0.96,19.22,-505.22,39.23
120755,0.36,0.09,0.95,22.72,-505.22,39.58
120758,0.35,0.10,0.95,25.86,-505.22,42.73
120761,0.33,0.13,0.93,28.96,-505.22,50.21
120764,0.32,0.14,0.94,32.15,-505.22,59.99
120769,0.33,0.15,0.91,37.82,-505.22,75.37
120772,0.36,0.12,0.90,42.64,-505.22,84.85
120775,0.39,0.09,0.83,48.75,-505.22,92.82
120778,0.42,0.07,0.79,53.46,-505.22,99.66
120781,0.46,0.05,0.74,55.22,-505.22,106.18
120784,0.48,0.03,0.70,54.87,-505.22,110.88
120787,0.53,0.04,0.65,53.10,-505.22,113.87
120790,0.57,0.03,0.60,50.91,-505.22,115.19
120793,0.65,0.03,0.49,50.82,-505.22,114.28
120796,0.67,0.04,0.48,51.63,-505.22,114.64
120799,0.65,0.07,0.47,53.42,-505.22,117.51
120802,0.66,0.06,0.48,56.36,-505.22,121.49
120806,0.70,0.06,0.49,56.53,-505.22,124.59
120809,0.76,0.05,0.48,52.69,-505.22,122.36
120812,0.80,0.02,0.47,45.22,-505.22,115.69
120815,0.87,-0.01,0.45,33.97,-505.22,105.11
120818,0.91,-0.02,0.40,21.54,-505.22,94.12
120822,0.95,-0.03,0.41,9.75,-505.22,83.64
120825,0.98,-0.03,0.40,0.04,-485.05,72.93
120828,0.99,-0.03,0.42,-8.63,-445.16,64.80
120831,1.00,-0.02,0.43,-16.73,-409.34,58.42
120834,1.01,-0.01,0.46,-23.45,-377.99,52.33
120837,1.02,0.02,0.47,-28.67,-350.18,47.58
120841,1.04,0.05,0.51,-30.47,-320.81,41.54
120844,1.05,0.05,0.52,-29.38,-305.08,37.26
120847,1.05,0.04,0.53,-24.78,-293.94,33.40
120850,1.06,0.03,0.56,-17.62,-288.24,29.38
120853,1.04,0.04,0.57,-9.19,-287.99,26.53
120856,1.03,0.04,0.59,0.36,-293.31,24.71
120859,1.04,0.04,0.60,7.51,-303.04,24.61
120862,1.03,0.05,0.59,13.48,-317.68,25.14
120865,1.03,0.07,0.58,17.17,-335.51,26.97
120868,1.02,0.08,0.56,20.04,-354.60,29.93
120871,1.03,0.10,0.55,21.14,-375.91,33.58
120874,1.03,0.12,0.52,21.54,-398.18,37.95
120879,1.03,0.12,0.49,20.30,-429.41,44.68
120882,1.03,0.11,0.45,19.17,-449.30,49.37
120885,1.05,0.09,0.39,16.81,-463.05,54.80
120888,1.06,0.07,0.35,15.63,-470.99,60.03
120891,1.09,0.04,0.33,15.33,-474.64,64.12
120894,1.10,0.02,0.32,16.79,-474.66,67.61
120897,1.11,0.00,0.31,19.11,-470.29,72.64
120900,1.10,0.01,0.30,20.81,-461.34,79.48
120903,1.08,0.02,0.29,22.53,-449.50,89.09
120906,1.08,0.04,0.32,22.62,-438.61,99.58
120909,1.07,0.04,0.33,22.91,-426.32,110.06
120912,1.07,0.04,0.34,24.53,-413.82,119.70
120916,1.09,0.04,0.35,27.42,-397.05,129.35
120919,1.10,0.02,0.34,30.46,-384.38,133.57
120922,1.10,-0.01,0.31,32.90,-369.57,135.84
120925,1.12,-0.03,0.29,34.29,-352.72,136.24
120928,1.15,-0.05,0.23,35.48,-332.96,135.02
120931,1.18,-0.08,0.18,34.78,-305.16,132.04
120934,1.20,-0.11,0.08,32.62,-268.58,128.85
120937,1.22,-0.14,0.01,29.08,-220.87,125.51
120940,1.23,-0.16,-0.03,26.18,-171.01,122.10
120943,1.23,-0.17,-0.04,24.81,-120.32,117.48
120947,1.21,-0.17,-0.04,24.59,-66.89,113.34
120951,1.18,-0.14,0.00,27.37,0.49,108.80
120954,1.15,-0.12,0.05,32.59,39.60,105.51
120957,1.12,-0.10,0.12,40.14,70.27,102.22
120960,1.11,-0.09,0.15,50.56,98.49,98.68
120963,1.09,-0.08,0.13,63.27,125.94,94.83
120966,1.08,-0.10,0.12,78.21,155.66,90.07
120969,1.09,-0.11,0.10,91.53,184.53,85.22
120972,1.10,-0.15,0.12,103.46,211.66,77.78
120975,1.13,-0.18,0.13,113.59,233.51,68.82
120978,1.15,-0.20,0.12,121.16,256.20,59.41
120981,1.16,-0.20,0.09,127.69,283.31,52.13
120984,1.16,-0.18,0.07,134.26,312.98,46.41
120988,1.12,-0.12,0.06,142.07,358.29,44.65
120992,1.13,-0.10,0.00,145.77,388.29,46.80
120995,1.08,-0.07,0.01,147.25,413.66,52.53
120998,1.08,-0.05,0.02,147.71,438.06,60.16
121001,1.06,-0.03,0.05,147.77,454.99,67.46
121004,1.03,-0.01,0.12,147.82,462.70,76.94
121007,1.03,0.01,0.20,148.27,462.43,86.30
121010,1.03,0.03,0.23,149.37,458.26,96.91
121013,1.04,0.03,0.28,151.42,449.89,107.74
121016,1.01,0.03,0.33,153.14,438.40,119.89
121019,0.99,0.05,0.41,155.92,419.59,133.55
121022,0.96,0.06,0.48,156.69,394.12,147.81
121026,0.94,0.06,0.53,154.88,352.01,168.27
121029,0.94,0.04,0.60,151.14,321.47,182.42
121032,0.93,-0.02,0.74,147.88,286.40,189.81
121035,0.95,-0.02,0.73,143.86,256.75,200.25
121039,0.97,0.02,0.65,137.10,238.24,211.31
121042,0.97,0.00,0.65,131.24,223.40,221.83
121045,0.97,-0.01,0.68,124.70,207.16,228.09
121048,0.98,-0.03,0.64,116.41,195.34,231.69
121051,1.01,-0.04,0.59,106.32,189.36,232.61
121054,1.02,-0.05,0.49,94.76,193.24,233.03
121057,1.03,-0.05,0.45,84.65,202.66,233.26
121061,1.06,-0.07,0.36,74.76,226.40,232.88
121064,1.08,-0.11,0.34,70.03,245.95,231.35
121067,1.11,-0.15,0.33,68.53,269.28,227.32
121070,1.13,-0.19,0.35,70.21,289.13,222.65
121073,1.13,-0.19,0.37,74.24,308.01,217.51
121076,1.10,-0.19,0.41,79.02,318.64,214.64
121080,1.06,-0.16,0.44,83.49,323.19,214.18
121083,1.03,-0.13,0.46,85.92,324.40,217.90
121086,0.99,-0.11,0.47,88.49,322.90,224.61
121089,0.95,-0.10,0.48,89.72,318.05,235.09
121092,0.91,-0.09,0.51,91.24,310.43,247.96
121095,0.87,-0.08,0.52,92.55,300.56,262.64
121099,0.84,-0.08,0.56,94.11,283.05,284.32
121102,0.81,-0.09,0.58,95.74,264.90,299.60
121105,0.80,-0.09,0.63,97.51,241.39,311.80
121108,0.81,-0.10,0.65,98.18,215.82,319.77
121111,0.82,-0.13,0.67,97.63,189.48,322.76
121114,0.84,-0.17,0.67,96.50,163.94,320.71
121117,0.86,-0.22,0.64,94.26,140.05,313.99
121120,0.86,-0.25,0.63,91.28,121.28,304.19
121123,0.88,-0.29,0.59,87.51,107.33,292.22
121126,0.87,-0.30,0.58,84.85,96.20,278.18
121129,0.87,-0.30,0.57,82.91,86.00,264.32
121133,0.86,-0.30,0.57,81.71,76.70,249.19
121137,0.83,-0.30,0.58,80.59,63.54,230.38
121140,0.80,-0.30,0.59,80.14,54.66,217.93
121143,0.77,-0.28,0.60,78.49,47.95,208.88
121146,0.74,-0.26,0.59,77.39,40.98,201.90
121149,0.71,-0.24,0.61,75.46,33.13,196.56
121152,0.70,-0.23,0.62,72.01,22.78,192.79
121155,0.68,-0.22,0.63,67.08,11.13,188.99
121158,0.65,-0.22,0.64,60.03,-2.78,186.42
121161,0.64,-0.23,0.66,52.47,-18.38,183.45
121164,0.63,-0.24,0.67,42.67,-36.23,181.09
121167,0.64,-0.25,0.67,32.20,-53.80,176.19
121170,0.64,-0.25,0.67,20.91,-70.57,170.71
121174,0.66,-0.27,0.66,5.66,-94.00,161.40
121177,0.67,-0.29,0.66,-5.31,-112.08,152.96
121180,0.67,-0.30,0.66,-15.35,-128.32,144.44
121184,0.66,-0.30,0.67,-24.20,-144.37,136.35
121187,0.65,-0.28,0.68,-34.49,-164.37,128.96
121190,0.64,-0.27,0.68,-45.99,-184.96,121.86
121193,0.65,-0.26,0.68,-60.11,-207.66,114.12
121196,0.66,-0.27,0.65,-77.25,-233.70,104.27
121199,0.68,-0.28,0.62,-97.88,-260.90,92.33
121203,0.71,-0.28,0.58,-118.55,-285.54,79.90
121206,0.72,-0.28,0.55,-138.52,-309.50,66.62
121210,0.75,-0.31,0.52,-163.59,-344.18,46.27
121213,0.75,-0.31,0.51,-179.50,-370.38,30.91
121217,0.76,-0.32,0.51,-194.75,-399.71,13.63
121220,0.76,-0.34,0.51,-210.40,-428.50,-4.45
121223,0.77,-0.35,0.52,-226.61,-461.80,-23.58
121227,0.76,-0.34,0.51,-242.22,-495.24,-43.12
121230,0.77,-0.33,0.51,-257.42,-505.22,-62.43
121234,0.77,-0.31,0.49,-270.51,-505.22,-81.41
121237,0.80,-0.31,0.47,-279.97,-505.22,-101.03
121241,0.82,-0.30,0.46,-284.83,-505.22,-120.86
121244,0.84,-0.30,0.45,-283.05,-505.22,-142.19
121263,0.89,-0.22,0.20,-218.41,-505.22,-266.63
121267,0.89,-0.21,0.14,-204.11,-505.22,-287.82
121270,0.90,-0.23,0.12,-188.43,-505.22,-311.21
121273,0.91,-0.23,0.03,-171.80,-505.22,-335.13
121276,0.94,-0.25,-0.08,-155.21,-505.22,-360.43
121279,0.95,-0.27,-0.15,-141.56,-505.22,-386.14
121282,0.96,-0.30,-0.23,-131.88,-495.71,-408.66
121285,0.95,-0.32,-0.27,-127.28,-441.88,-428.49
121288,0.96,-0.35,-0.23,-126.37,-389.36,-444.46
121291,0.96,-0.36,-0.18,-130.23,-338.55,-456.62
121295,0.96,-0.36,-0.03,-140.23,-272.61,-465.91
121299,0.96,-0.36,0.10,-146.66,-231.08,-467.18
121302,0.95,-0.35,0.22,-148.17,-198.31,-465.04
121305,0.96,-0.30,0.28,-146.15,-173.86,-459.35
121308,0.97,-0.26,0.32,-140.73,-151.42,-451.82
121311,0.99,-0.21,0.31,-132.09,-129.77,-443.06
121314,0.98,-0.17,0.30,-121.67,-107.42,-430.19
121317,0.97,-0.12,0.27,-111.53,-87.31,-414.52
121320,0.96,-0.08,0.24,-103.54,-69.66,-396.60
121323,0.96,-0.04,0.20,-97.91,-52.70,-377.07
121327,0.97,-0.03,0.16,-94.12,-40.02,-355.97
121331,0.98,-0.01,0.13,-92.12,-30.92,-331.18
121334,1.02,-0.02,0.11,-91.65,-30.20,-318.88
121337,1.05,-0.03,0.10,-90.25,-30.60,-310.80
121340,1.09,-0.04,0.05,-88.14,-28.58,-305.04
121344,1.14,-0.07,-0.00,-84.22,-20.89,-300.33
121347,1.16,-0.10,-0.04,-79.05,-9.34,-296.30
121350,1.19,-0.10,-0.04,-71.93,5.28,-292.11
121354,1.20,-0.10,-0.01,-61.48,19.08,-286.65
121357,1.20,-0.08,0.02,-50.05,28.12,-279.79
121360,1.19,-0.04,0.08,-39.15,30.21,-271.32
121364,1.19,-0.01,0.13,-29.21,24.14,-260.14
121368,1.18,0.02,0.22,-19.47,1.31,-243.35
121371,1.20,0.04,0.23,-14.81,-19.51,-230.28
121374,1.21,0.06,0.24,-11.09,-38.84,-214.92
121377,1.23,0.09,0.17,-8.41,-53.86,-195.65
121380,1.24,0.11,0.12,-5.54,-62.96,-173.20
121383,1.25,0.12,0.06,-2.75,-65.86,-148.72
121386,1.27,0.15,0.02,0.24,-62.98,-122.42
121389,1.30,0.15,0.01,3.11,-54.96,-94.46
121392,1.34,0.14,0.01,7.28,-40.47,-65.35
121395,1.37,0.12,0.02,12.91,-20.72,-34.89
121398,1.38,0.11,0.03,18.84,4.15,-3.39
121401,1.38,0.10,0.02,25.33,29.98,28.30
121406,1.35,0.08,0.04,36.55,65.95,72.48
121409,1.32,0.07,0.06,46.75,85.22,102.15
121412,1.29,0.08,0.07,58.01,97.98,130.42
121415,1.27,0.08,0.09,67.60,106.72,155.95
121418,1.26,0.08,0.08,75.14,111.11,177.87
121421,1.24,0.08,0.10,81.48,112.82,197.86
121424,1.24,0.07,0.09,85.83,114.03,213.49
121427,1.24,0.05,0.06,89.86,117.28,227.48
121430,1.24,0.02,-0.01,93.17,129.98,238.76
121433,1.25,-0.03,-0.05,96.82,149.69,249.08
121436,1.24,-0.05,-0.07,99.92,172.08,258.04
121439,1.22,-0.06,-0.03,101.40,190.56,264.07
121443,1.20,-0.06,0.05,101.69,207.83,268.71
121446,1.19,-0.07,0.10,101.63,211.72,269.14
121449,1.19,-0.08,0.14,102.11,211.53,269.20
121452,1.18,-0.11,0.15,104.84,210.59,269.57
121456,1.19,-0.09,0.11,108.41,215.56,272.22
121459,1.19,-0.09,0.08,112.69,224.87,277.99
121462,1.19,-0.10,0.12,118.78,231.65,284.04
121465,1.21,-0.11,0.12,125.49,238.92,290.51
121469,1.19,-0.10,0.13,132.36,249.68,300.19
121472,1.15,-0.08,0.16,139.40,257.11,311.99
121475,1.13,-0.05,0.20,148.09,259.39,326.67
121480,1.10,-0.02,0.25,158.26,253.89,347.14
121483,1.10,-0.02,0.27,162.62,246.98,361.74
121486,1.10,-0.05,0.27,164.93,245.85,374.67
121489,1.10,-0.08,0.24,166.20,243.50,386.04
121492,1.11,-0.10,0.20,166.23,248.47,396.30
121495,1.08,-0.11,0.18,168.15,256.69,404.77
121498,1.05,-0.10,0.19,170.06,263.04,414.06
121502,1.02,-0.07,0.18,171.02,267.10,421.70
121505,1.00,-0.07,0.16,170.81,268.70,428.25
121508,0.98,-0.09,0.18,168.65,269.59,432.61
121512,0.98,-0.12,0.21,165.88,266.00,433.08
121515,0.96,-0.15,0.25,165.86,253.17,428.42
121519,0.99,-0.19,0.32,165.72,236.01,412.83
121522,0.99,-0.21,0.36,165.71,213.86,397.40
121525,0.98,-0.23,0.40,165.69,189.76,380.01
121528,0.97,-0.22,0.39,164.96,167.91,364.53
121531,0.94,-0.25,0.37,162.33,150.23,350.04
121535,0.93,-0.25,0.35,160.44,136.53,337.84
121538,0.91,-0.27,0.34,161.49,125.94,326.07
121541,0.91,-0.32,0.34,168.49,117.08,313.86
121545,0.93,-0.33,0.29,175.57,113.07,301.70
121548,0.91,-0.36,0.29,183.08,111.74,289.72
121551,0.89,-0.37,0.27,192.07,114.55,280.79
121555,0.86,-0.35,0.26,207.45,122.37,272.13
121558,0.84,-0.33,0.26,218.12,124.63,266.30
121561,0.81,-0.31,0.28,228.49,124.08,259.29
121565,0.78,-0.30,0.31,235.49,120.18,250.80
121568,0.76,-0.29,0.34,237.37,114.17,240.15
121571,0.75,-0.28,0.36,233.88,106.81,228.12
121574,0.71,-0.28,0.40,225.04,95.11,213.25
121577,0.69,-0.30,0.42,213.02,81.01,196.65
121581,0.69,-0.30,0.43,198.01,66.67,177.46
121584,0.69,-0.32,0.45,182.40,52.58,157.38
121587,0.70,-0.33,0.46,165.88,39.25,134.45
121590,0.73,-0.35,0.45,149.91,28.29,109.11
121594,0.75,-0.36,0.45,132.04,20.20,72.96
121597,0.77,-0.37,0.44,124.07,19.68,49.14
121600,0.78,-0.38,0.43,119.11,21.25,26.71
121603,0.80,-0.38,0.42,115.98,25.56,3.38
121607,0.81,-0.38,0.42,114.24,28.84,-18.74
121610,0.81,-0.39,0.43,110.35,31.53,-39.62
121613,0.82,-0.38,0.43,105.05,33.89,-59.35
121616,0.82,-0.38,0.44,97.27,35.91,-77.55
121619,0.83,-0.37,0.45,89.45,36.17,-93.59
121622,0.83,-0.36,0.46,81.33,34.03,-107.27
121625,0.84,-0.34,0.45,72.88,30.53,-119.93
121628,0.85,-0.33,0.42,63.07,25.74,-132.60
121632,0.86,-0.32,0.41,48.20,19.30,-146.71
121635,0.86,-0.32,0.41,38.06,13.47,-155.20
121638,0.86,-0.32,0.43,27.24,5.43,-163.62
121641,0.86,-0.31,0.46,16.43,-4.93,-170.42
121644,0.86,-0.30,0.48,4.75,-19.25,-177.85
121647,0.85,-0.29,0.49,-9.35,-39.36,-185.58
121651,0.85,-0.28,0.53,-27.16,-64.35,-194.19
121654,0.86,-0.26,0.56,-49.50,-97.68,-202.95
121658,0.84,-0.24,0.58,-76.78,-135.97,-213.00
121661,0.83,-0.23,0.60,-107.70,-181.74,-222.75
121665,0.84,-0.21,0.62,-140.54,-231.65,-233.38
121669,0.84,-0.19,0.64,-182.41,-299.33,-246.74
121672,0.84,-0.17,0.65,-205.45,-342.40,-255.85
121675,0.85,-0.16,0.65,-225.25,-382.70,-265.06
121679,0.86,-0.15,0.63,-243.70,-424.95,-276.84
121682,0.88,-0.14,0.62,-259.01,-465.79,-291.81
121686,0.90,-0.15,0.55,-267.57,-496.00,-308.49
121690,0.95,-0.16,0.44,-270.14,-505.22,-327.96
121693,0.98,-0.18,0.37,-264.12,-505.22,-351.36
121697,1.01,-0.27,0.33,-250.03,-505.22,-379.99
121700,1.03,-0.36,0.29,-228.34,-505.22,-413.67
121704,1.04,-0.45,0.24,-201.15,-499.77,-448.22
121708,1.06,-0.52,0.10,-159.99,-454.52,-491.97
121711,1.07,-0.50,-0.02,-132.08,-406.37,-499.13
121715,1.04,-0.48,-0.04,-103.41,-355.88,-499.13
121718,1.02,-0.48,-0.00,-73.04,-305.18,-499.13
121722,1.00,-0.40,0.02,-47.96,-251.85,-499.13
121725,0.98,-0.28,0.07,-31.96,-210.14,-499.13
121729,0.96,-0.13,0.05,-26.86,-175.21,-499.13
121732,0.90,-0.03,0.10,-25.68,-148.38,-499.13
121735,0.89,0.04,0.13,-24.92,-130.14,-499.13
121739,0.89,0.09,0.14,-25.13,-118.02,-499.13
121743,0.92,0.11,0.16,-25.79,-111.28,-499.13
121746,0.95,0.12,0.17,-26.43,-110.86,-499.13
121749,0.97,0.14,0.16,-28.99,-112.89,-499.13
121752,0.99,0.16,0.15,-33.38,-116.90,-499.13
121756,0.99,0.15,0.14,-35.73,-122.46,-499.13
121759,0.99,0.18,0.14,-36.99,-131.18,-499.13
121763,0.99,0.21,0.14,-37.73,-143.54,-499.13
121766,0.98,0.23,0.14,-38.92,-158.11,-499.13
121769,0.99,0.23,0.14,-37.22,-172.83,-499.13
121773,0.98,0.27,0.14,-35.35,-187.59,-499.13
121776,1.00,0.28,0.10,-33.85,-201.01,-493.61
121780,1.02,0.28,0.04,-29.83,-205.92,-482.19
121783,1.06,0.25,-0.01,-27.02,-200.26,-473.79
121786,1.09,0.24,-0.05,-27.28,-186.21,-464.80
121790,1.14,0.20,-0.06,-28.76,-166.66,-455.04
121793,1.20,0.18,-0.05,-31.47,-139.68,-443.17
121797,1.24,0.18,-0.05,-34.64,-111.08,-429.03
121800,1.30,0.20,-0.01,-35.94,-82.06,-411.96
121803,1.36,0.20,0.03,-35.74,-57.82,-394.36
121807,1.37,0.22,0.04,-34.51,-36.14,-371.88
121810,1.35,0.30,0.06,-33.22,-18.47,-338.92
121813,1.33,0.38,0.08,-34.12,-6.37,-298.78
121816,1.30,0.44,0.10,-33.30,-2.29,-253.82
121821,1.29,0.51,0.14,-27.60,-4.44,-180.23
121824,1.29,0.53,0.14,-19.97,-5.59,-126.69
121827,1.28,0.53,0.14,-7.83,-3.74,-70.25
121830,1.27,0.52,0.12,7.07,0.37,-11.30
121833,1.27,0.51,0.08,21.36,11.40,49.45
121836,1.27,0.50,0.06,32.29,26.06,111.40
121839,1.24,0.50,0.07,42.03,41.48,172.12
121842,1.24,0.49,0.12,50.53,54.82,233.25
121845,1.23,0.48,0.18,58.50,62.55,285.25
121848,1.22,0.46,0.19,65.25,69.28,332.79
121851,1.21,0.46,0.14,69.88,78.17,377.35
121854,1.17,0.46,0.10,71.11,87.34,415.93
121873,1.16,0.21,-0.06,31.22,149.11,501.40
121876,1.18,0.13,-0.04,24.61,160.59,501.40
121879,1.18,0.06,-0.03,21.80,173.88,501.40
121882,1.18,0.00,-0.01,20.84,189.54,501.09
121885,1.16,-0.03,0.01,23.85,203.13,493.40
121888,1.12,-0.01,0.05,27.92,213.89,485.72
121891,1.10,-0.01,0.06,34.00,220.40,480.41
121894,1.07,0.00,0.08,41.86,223.53,475.83
121898,1.03,0.03,0.11,47.97,221.57,473.08
121901,1.00,0.03,0.16,54.76,212.76,471.41
121904,0.99,0.01,0.17,59.89,201.05,469.26
121908,1.00,-0.04,0.18,68.04,187.68,465.90
121911,1.00,-0.05,0.18,73.40,183.31,462.76
121914,1.00,-0.05,0.18,79.60,181.88,459.00
121917,1.00,-0.05,0.19,85.01,180.46,454.73
121920,0.99,-0.04,0.17,88.21,179.43,450.27
121923,1.01,-0.04,0.16,91.82,179.85,443.45
121926,1.05,-0.04,0.11,92.81,185.89,434.51
121929,1.04,-0.03,0.12,93.72,195.37,422.59
121932,1.01,-0.02,0.13,97.20,202.34,411.86
121935,1.01,-0.03,0.18,102.44,207.66,400.18
121938,1.00,-0.03,0.20,107.49,207.53,386.57
121941,0.98,-0.06,0.27,112.14,202.43,369.03
121946,0.97,-0.11,0.32,116.84,187.95,342.24
121949,0.96,-0.12,0.34,117.14,175.47,321.95
121952,0.93,-0.15,0.36,115.19,163.13,302.22
121955,0.92,-0.17,0.36,111.74,150.03,282.70
121958,0.90,-0.17,0.37,106.64,138.58,263.63
121961,0.88,-0.18,0.36,99.30,127.94,242.99
121964,0.87,-0.18,0.38,92.59,117.34,222.65
121967,0.85,-0.19,0.38,87.20,107.04,200.74
121970,0.84,-0.19,0.38,82.43,98.64,180.61
121973,0.85,-0.19,0.37,77.11,91.08,156.48
121976,0.84,-0.19,0.35,71.78,86.32,134.93
121979,0.83,-0.18,0.33,66.12,83.69,113.93
121983,0.81,-0.18,0.33,55.95,77.88,86.48
121987,0.79,-0.16,0.32,47.20,71.28,67.49
121990,0.78,-0.16,0.32,37.43,63.97,50.44
121993,0.77,-0.15,0.33,28.14,53.97,33.12
121996,0.77,-0.16,0.33,19.10,44.11,17.05
121999,0.77,-0.16,0.34,10.70,32.08,0.33
122002,0.76,-0.16,0.35,2.11,20.61,-16.28
122005,0.75,-0.15,0.36,-5.57,8.26,-32.39
122008,0.75,-0.14,0.34,-12.96,-5.08,-48.40
122011,0.74,-0.12,0.34,-21.33,-20.64,-66.10
122014,0.76,-0.12,0.33,-31.28,-38.61,-85.64
122017,0.77,-0.12,0.34,-43.44,-59.01,-108.13
122021,0.77,-0.14,0.34,-63.09,-91.95,-142.40
122024,0.79,-0.15,0.36,-79.33,-120.08,-170.33
122027,0.80,-0.15,0.35,-95.79,-150.44,-198.71
122030,0.83,-0.16,0.35,-114.00,-184.23,-229.81
122033,0.86,-0.17,0.36,-131.02,-218.05,-260.81
122036,0.88,-0.19,0.37,-146.75,-252.92,-293.03
122039,0.92,-0.18,0.36,-160.35,-289.65,-327.41
122042,0.94,-0.18,0.34,-171.21,-325.80,-361.93
122045,0.98,-0.16,0.30,-180.22,-358.76,-395.81
122049,1.00,-0.14,0.24,-189.67,-387.53,-430.54
122053,1.04,-0.11,0.18,-197.74,-422.92,-477.53
122056,1.07,-0.10,0.10,-200.69,-440.99,-499.13
122059,1.09,-0.10,0.07,-199.30,-456.11,-499.13
122062,1.15,-0.10,-0.02,-193.74,-465.05,-499.13
122065,1.14,-0.07,-0.06,-183.44,-468.58,-499.13
122068,1.17,-0.09,-0.13,-172.03,-466.70,-499.13
122072,1.17,-0.09,-0.20,-157.77,-464.49,-499.13
122076,1.17,-0.08,-0.29,-148.49,-452.67,-499.13
122079,1.14,-0.04,-0.33,-147.10,-431.89,-499.13
122083,1.09,-0.03,-0.30,-151.12,-400.99,-499.13
122086,1.04,-0.04,-0.20,-154.15,-355.31,-499.13
122091,1.06,-0.00,-0.05,-152.12,-272.15,-499.13
122094,1.08,0.01,0.03,-142.12,-213.59,-499.13
122097,1.10,0.05,0.10,-124.72,-154.78,-499.13
122100,1.14,0.12,0.11,-103.79,-103.27,-494.02
122104,1.19,0.18,0.15,-82.28,-58.15,-431.07
122107,1.22,0.24,0.15,-68.05,-24.81,-371.10
122110,1.22,0.27,0.13,-59.22,-1.36,-314.02
122114,1.20,0.31,0.12,-53.89,14.53,-258.33
122117,1.18,0.34,0.09,-51.35,25.42,-204.16
122120,1.16,0.36,0.06,-49.31,32.08,-156.52
122123,1.16,0.37,0.05,-47.31,33.95,-113.97
122127,1.16,0.37,0.02,-45.28,33.14,-68.83
122130,1.17,0.34,0.01,-45.74,31.28,-45.96
122133,1.21,0.31,0.02,-45.42,29.43,-30.02
122136,1.23,0.26,0.04,-44.61,28.53,-19.96
122139,1.25,0.22,0.05,-42.14,28.03,-14.66
122142,1.25,0.21,0.05,-39.76,30.78,-11.88
122145,1.26,0.21,0.06,-37.01,35.56,-9.41
122148,1.27,0.21,0.08,-34.89,41.02,-6.63
122151,1.27,0.22,0.07,-33.93,48.52,-1.18
122154,1.26,0.24,0.06,-34.38,58.55,6.12
122157,1.25,0.26,0.07,-35.67,69.01,17.11
122160,1.23,0.29,0.08,-35.91,77.68,30.77
122165,1.22,0.31,0.13,-33.41,83.83,53.29
122168,1.20,0.33,0.13,-29.33,83.88,70.88
122171,1.18,0.32,0.16,-23.30,80.96,89.99
122174,1.18,0.31,0.17,-14.26,74.99,111.34
122177,1.18,0.29,0.21,-3.31,67.14,131.77
122180,1.17,0.27,0.21,8.65,59.30,154.16
122183,1.14,0.26,0.20,19.98,53.01,176.87
122186,1.12,0.28,0.17,31.16,47.45,201.45
122189,1.11,0.28,0.15,40.93,43.30,228.45
122192,1.11,0.27,0.11,48.06,43.88,258.07
122195,1.12,0.25,0.08,51.27,49.77,286.42
122198,1.13,0.23,0.06,52.41,60.23,316.28
122202,1.13,0.18,0.04,53.42,74.73,352.18
122205,1.13,0.15,0.06,53.78,87.17,374.71
122208,1.11,0.15,0.05,52.01,98.41,395.45
122211,1.09,0.14,0.05,50.55,109.72,414.91
122214,1.05,0.16,0.05,49.02,118.90,434.04
122217,1.02,0.19,0.06,47.36,125.05,452.03
122221,0.99,0.21,0.06,46.06,127.57,468.47
122224,0.98,0.21,0.08,45.89,124.56,481.92
122227,0.99,0.19,0.08,45.36,119.36,490.79
122230,1.01,0.14,0.09,47.42,113.24,494.22
122233,1.05,0.10,0.11,50.96,106.63,492.99
122236,1.08,0.07,0.09,56.12,102.66,486.80
122240,1.10,0.03,0.07,64.73,102.49,472.94
122243,1.10,0.01,0.07,69.54,104.81,460.12
122246,1.08,-0.02,0.06,73.75,109.02,445.84
122249,1.05,-0.04,0.05,77.86,114.00,432.07
122252,1.01,-0.03,0.06,80.35,119.27,419.45
122255,0.97,-0.02,0.05,79.65,122.11,408.64
122258,0.95,-0.04,0.08,77.08,120.67,398.85
122261,0.93,-0.05,0.12,73.14,114.61,388.45
122264,0.93,-0.07,0.14,67.78,105.76,378.65
122267,0.92,-0.09,0.15,61.86,94.14,367.69
122270,0.94,-0.13,0.15,56.95,84.05,356.21
122273,0.97,-0.17,0.12,51.10,79.97,344.70
122278,0.96,-0.22,0.09,44.20,84.46,329.84
122281,0.96,-0.21,0.08,40.15,92.01,318.91
122284,0.94,-0.21,0.10,37.80,97.19,308.51
122287,0.91,-0.18,0.13,35.27,99.76,297.37
122290,0.90,-0.17,0.15,32.90,98.79,286.47
122293,0.87,-0.16,0.22,30.98,93.40,273.34
122296,0.86,-0.16,0.22,28.69,84.82,259.28
122299,0.86,-0.17,0.25,26.38,74.85,243.48
122302,0.85,-0.20,0.26,23.57,64.95,227.03
122305,0.87,-0.22,0.25,19.68,56.30,207.66
122308,0.88,-0.23,0.23,15.48,51.25,186.90
122311,0.89,-0.25,0.22,11.02,49.43,166.41
122315,0.91,-0.27,0.17,6.91,59.77,136.30
122318,0.91,-0.26,0.14,5.16,76.37,116.65
122321,0.91,-0.24,0.14,4.98,96.08,97.48
122324,0.90,-0.21,0.13,5.33,115.60,78.83
122327,0.89,-0.20,0.13,5.31,133.98,60.07
122330,0.89,-0.18,0.14,4.49,149.97,41.75
122333,0.89,-0.18,0.14,2.35,163.95,23.40
122336,0.88,-0.17,0.12,-0.47,176.50,5.38
122339,0.88,-0.17,0.11,-5.99,188.82,-11.75
122342,0.86,-0.15,0.08,-12.83,202.20,-27.96
122345,0.85,-0.13,0.08,-19.44,215.36,-44.72
122349,0.86,-0.13,0.06,-25.96,230.50,-61.03
122353,0.88,-0.11,0.02,-31.05,256.88,-86.04
122356,0.87,-0.09,0.05,-30.58,280.67,-106.59
122359,0.90,-0.10,0.03,-29.02,305.97,-125.36
122362,0.90,-0.12,0.05,-26.90,333.60,-147.24
122365,0.93,-0.15,0.07,-25.36,361.51,-170.52
122368,0.93,-0.17,0.12,-21.25,387.54,-197.85
122371,0.95,-0.22,0.22,-20.81,403.72,-227.27
122374,1.02,-0.22,0.10,-19.38,433.89,-264.17
122377,1.01,-0.23,0.07,-19.62,463.51,-296.88
122380,1.01,-0.24,0.06,-18.84,495.31,-330.08
122384,0.99,-0.21,0.11,-18.00,495.31,-360.11
122388,0.99,-0.17,0.13,-17.36,495.31,-400.07
122391,1.00,-0.18,0.19,-18.61,495.31,-427.53
122394,1.01,-0.20,0.23,-21.09,495.31,-455.21
122397,1.02,-0.17,0.26,-27.48,495.31,-484.49
122401,1.02,-0.16,0.34,-36.00,495.31,-499.13
122404,1.00,-0.16,0.41,-43.28,495.31,-499.13
122407,0.98,-0.18,0.52,-47.85,495.31,-499.13
122411,0.98,-0.23,0.59,-50.06,495.31,-499.13
122414,1.02,-0.29,0.66,-51.71,495.31,-499.13
122417,1.04,-0.34,0.71,-53.85,495.31,-499.13
122421,1.05,-0.32,0.69,-59.59,495.31,-499.13
122425,1.02,-0.25,0.71,-70.80,495.31,-499.13
122428,1.02,-0.20,0.73,-80.78,495.31,-499.13
122431,1.00,-0.15,0.75,-91.36,495.31,-499.13
122434,0.98,-0.09,0.83,-105.70,495.31,-499.13
122438,0.91,-0.05,0.93,-120.37,495.31,-499.13
122441,0.89,0.04,1.05,-137.80,488.49,-499.13
122445,0.90,0.09,1.03,-154.52,438.47,-499.13
122448,0.90,0.17,1.03,-166.52,390.84,-499.13
122451,0.92,0.20,0.99,-173.79,352.99,-499.13
122455,0.93,0.24,0.98,-174.25,318.46,-499.13
122458,0.95,0.28,0.96,-168.54,289.98,-499.13
122477,0.87,0.52,0.96,-128.46,145.50,-326.31
122481,0.84,0.52,0.95,-119.02,120.82,-248.98
122484,0.83,0.54,0.95,-109.60,95.21,-169.65
122487,0.81,0.52,0.92,-101.62,70.70,-93.96
122490,0.80,0.52,0.90,-94.05,47.24,-15.50
122493,0.79,0.51,0.86,-90.18,25.62,56.91
122496,0.80,0.52,0.87,-88.40,3.77,125.45
122499,0.81,0.48,0.85,-89.25,-16.08,189.69
122502,0.84,0.45,0.82,-89.54,-30.12,242.33
122505,0.87,0.40,0.79,-88.26,-39.74,286.83
122508,0.90,0.36,0.75,-84.86,-43.28,325.60
122511,0.90,0.34,0.70,-80.81,-38.53,355.63
122515,0.91,0.30,0.68,-75.85,-22.55,386.96
122518,0.90,0.29,0.66,-72.80,-6.18,401.19
122521,0.88,0.28,0.64,-72.15,13.53,409.45
122524,0.87,0.28,0.61,-73.77,37.24,411.72
122527,0.86,0.26,0.59,-77.83,61.05,408.51
122530,0.85,0.24,0.60,-83.74,84.47,400.74
122533,0.85,0.21,0.62,-89.79,105.95,387.87
122536,0.85,0.17,0.65,-93.99,127.33,369.22
122539,0.86,0.12,0.66,-94.84,148.30,347.22
122542,0.88,0.08,0.69,-92.66,169.54,322.04
122546,0.89,0.01,0.70,-86.63,192.00,293.11
122549,0.88,-0.02,0.73,-79.31,211.88,263.64
122553,0.85,-0.06,0.73,-65.85,237.56,224.70
122556,0.82,-0.07,0.74,-55.85,253.51,199.67
122559,0.79,-0.07,0.72,-45.67,265.95,180.88
122562,0.76,-0.07,0.72,-36.22,280.09,164.27
122565,0.75,-0.05,0.72,-27.45,292.12,152.83
122568,0.72,-0.02,0.72,-21.24,300.43,144.06
122571,0.71,0.02,0.73,-18.11,309.62,139.02
122574,0.69,0.06,0.72,-17.93,319.27,137.54
122577,0.67,0.08,0.72,-19.64,328.43,138.44
122580,0.64,0.09,0.73,-21.67,336.23,141.34
122583,0.62,0.09,0.75,-22.38,342.06,143.84
122588,0.60,0.06,0.81,-20.18,346.61,145.08
122591,0.59,0.05,0.85,-17.39,347.91,143.26
122594,0.59,0.01,0.88,-12.00,348.99,139.51
122597,0.59,-0.01,0.93,-6.09,348.95,131.57
122600,0.60,-0.04,0.95,2.64,349.43,120.13
122603,0.61,-0.06,0.95,12.62,351.19,105.81
122606,0.60,-0.07,0.96,22.91,352.99,87.81
122609,0.59,-0.09,0.97,32.98,353.33,68.10
122612,0.58,-0.11,0.96,42.23,352.26,45.74
122615,0.57,-0.12,0.96,50.69,349.94,20.50
122618,0.57,-0.13,0.97,57.69,343.04,-7.79
122621,0.58,-0.13,0.98,62.43,334.58,-37.49
122625,0.59,-0.12,0.99,65.05,317.69,-81.38
122628,0.60,-0.12,1.01,64.65,303.65,-112.66
122631,0.60,-0.12,1.03,63.49,286.46,-143.70
122634,0.59,-0.10,1.05,61.11,267.24,-173.39
122637,0.59,-0.06,1.05,56.99,249.60,-199.15
122640,0.58,-0.01,1.03,49.24,236.08,-221.50
122644,0.58,0.06,1.00,37.56,224.66,-237.35
122647,0.56,0.13,0.95,22.17,221.51,-247.52
122650,0.55,0.19,0.91,4.49,223.39,-252.02
122653,0.55,0.24,0.85,-13.99,229.66,-251.72
122656,0.52,0.28,0.82,-33.65,240.34,-246.43
122660,0.49,0.31,0.82,-57.59,258.08,-231.58
122663,0.46,0.31,0.83,-71.60,269.07,-217.59
122666,0.42,0.30,0.86,-83.01,277.21,-201.29
122669,0.39,0.29,0.89,-91.71,280.26,-182.05
122672,0.38,0.27,0.93,-98.20,278.64,-162.54
122675,0.35,0.24,0.95,-101.65,271.30,-143.76
122678,0.36,0.19,0.98,-103.57,259.43,-126.71
122681,0.37,0.14,1.00,-103.83,243.04,-111.33
122684,0.39,0.10,1.02,-104.46,222.01,-99.30
122687,0.40,0.07,1.03,-105.38,197.69,-89.12
122690,0.42,0.04,1.03,-106.18,172.44,-81.24
122693,0.43,0.02,1.04,-107.39,145.56,-74.92
122698,0.45,0.02,1.05,-107.77,104.15,-66.59
122701,0.45,0.00,1.05,-107.18,73.17,-61.49
122704,0.45,0.00,1.06,-105.86,41.80,-55.78
122707,0.45,0.01,1.06,-104.37,9.36,-49.93
122710,0.44,0.02,1.06,-102.26,-23.21,-44.16
122713,0.46,0.02,1.05,-100.75,-55.89,-38.01
122716,0.46,0.02,1.04,-99.77,-86.96,-31.82
122719,0.46,0.03,1.01,-99.02,-115.79,-24.92
122722,0.46,0.07,1.00,-99.99,-143.91,-15.41
122725,0.44,0.09,0.96,-102.44,-174.73,-3.35
122728,0.43,0.12,0.95,-105.42,-205.19,10.83
122732,0.40,0.13,0.96,-109.74,-251.44,33.35
122735,0.39,0.12,0.97,-113.59,-287.86,51.32
122738,0.38,0.12,0.95,-116.18,-324.57,69.40
122741,0.37,0.10,0.97,-117.33,-364.06,87.92
122745,0.37,0.08,0.97,-115.07,-402.08,104.83
122748,0.37,0.05,1.00,-110.61,-446.67,122.19
122751,0.37,0.01,1.04,-104.54,-496.12,137.61
122755,0.36,-0.05,1.08,-97.21,-505.22,150.67
122758,0.36,-0.08,1.14,-90.60,-505.22,161.83
122761,0.34,-0.09,1.15,-83.41,-505.22,170.96
122765,0.29,-0.09,1.20,-76.80,-505.22,180.88
122768,0.26,-0.09,1.22,-68.05,-505.22,186.28
122773,0.24,-0.07,1.19,-55.12,-505.22,193.22
122776,0.28,-0.04,1.04,-47.44,-505.22,194.76
122779,0.30,0.06,0.93,-43.54,-505.22,198.27
122782,0.31,0.09,0.80,-38.58,-505.22,203.74
122785,0.33,0.08,0.78,-33.56,-505.22,207.77
122788,0.40,0.08,0.60,-30.00,-505.22,209.70
122791,0.47,0.02,0.51,-27.86,-505.22,209.05
122795,0.53,-0.05,0.45,-26.66,-505.22,200.09
122798,0.57,-0.07,0.37,-25.16,-505.22,189.23
122802,0.62,-0.07,0.31,-23.94,-505.22,178.21
122805,0.68,-0.09,0.28,-21.57,-505.22,169.77
122809,0.82,-0.16,0.17,-18.22,-505.22,154.09
122812,0.92,-0.21,0.11,-16.76,-505.22,142.41
122815,1.00,-0.25,0.09,-14.99,-505.22,128.67
122819,1.05,-0.28,0.10,-12.32,-505.22,115.99
122822,1.09,-0.28,0.13,-8.47,-505.22,103.34
122825,1.11,-0.28,0.15,-5.19,-505.22,93.05
122828,1.15,-0.26,0.16,-2.92,-505.22,83.74
122831,1.17,-0.23,0.16,0.52,-505.22,74.39
122835,1.18,-0.19,0.16,3.83,-505.22,66.39
122838,1.18,-0.15,0.11,7.72,-505.22,60.39
122841,1.18,-0.13,0.06,11.19,-505.22,56.27
122845,1.20,-0.10,-0.01,14.01,-505.22,54.79
122848,1.20,-0.07,-0.06,13.07,-505.22,56.70
122851,1.20,-0.05,-0.10,10.75,-505.22,60.67
122854,1.20,-0.04,-0.14,9.68,-437.68,68.50
122857,1.19,-0.04,-0.11,9.75,-374.47,76.38
122860,1.17,-0.04,-0.04,10.06,-318.00,83.63
122864,1.16,-0.04,-0.01,9.01,-265.34,89.55
122867,1.14,-0.05,0.05,5.10,-222.24,92.67
122870,1.12,-0.07,0.10,0.75,-191.18,93.57
122873,1.11,-0.07,0.13,-3.86,-167.42,91.77
122876,1.10,-0.07,0.16,-8.32,-148.84,88.19
122880,1.09,-0.07,0.15,-11.44,-133.07,84.71
122884,1.08,-0.08,0.13,-14.95,-112.95,78.67
122887,1.08,-0.10,0.09,-16.76,-95.24,74.90
122890,1.08,-0.11,0.06,-19.45,-73.63,72.41
122893,1.09,-0.14,0.03,-22.43,-47.41,70.70
122896,1.11,-0.17,0.03,-25.47,-14.96,69.61
122899,1.13,-0.19,0.01,-28.22,24.14,70.53
122902,1.14,-0.21,0.00,-30.31,71.72,73.69
122905,1.15,-0.20,0.00,-30.54,123.91,78.91
122908,1.14,-0.19,0.01,-28.78,184.96,86.62
122912,1.13,-0.19,0.05,-25.02,250.38,95.28
122915,1.10,-0.18,0.07,-20.75,311.16,105.23
122919,1.05,-0.17,0.11,-12.28,404.21,119.96
122922,1.02,-0.16,0.12,-4.90,465.98,127.99
122925,0.99,-0.15,0.15,2.29,495.31,133.29
122928,0.96,-0.15,0.18,7.48,495.31,134.57
122931,0.93,-0.15,0.20,9.16,495.31,132.10
122934,0.92,-0.14,0.23,8.52,495.31,126.56
122937,0.91,-0.14,0.23,7.69,495.31,117.19
122940,0.91,-0.13,0.23,8.17,495.31,104.35
122943,0.92,-0.14,0.23,10.85,495.31,87.61
122946,0.95,-0.15,0.22,17.14,495.31,68.32
122950,0.98,-0.17,0.23,26.23,495.31,44.74
122953,1.00,-0.21,0.22,36.95,495.31,20.04
122957,0.98,-0.22,0.19,49.89,495.31,-11.50
122960,0.95,-0.21,0.18,58.44,495.31,-29.55
122963,0.89,-0.19,0.19,65.83,495.31,-44.30
122966,0.83,-0.13,0.22,72.84,495.31,-53.46
122969,0.77,-0.08,0.27,78.78,495.31,-57.76
122972,0.72,-0.05,0.33,84.29,495.31,-60.77
122975,0.68,-0.02,0.37,90.46,495.31,-63.90
122978,0.64,0.00,0.44,95.45,495.31,-67.87
122981,0.65,-0.10,0.64,99.89,495.31,-80.46
122985,0.60,-0.06,0.72,108.43,495.31,-97.10
122988,0.59,0.05,0.66,114.06,495.31,-100.92
122991,0.67,-0.03,0.65,119.05,495.31,-109.78
122996,0.63,-0.20,0.82,135.34,495.31,-135.23
122999,0.70,-0.31,0.88,149.27,495.31,-162.22
123002,0.62,-0.32,1.09,159.48,495.31,-184.30
123005,0.68,-0.32,1.00,167.13,495.31,-209.35
123008,0.68,-0.28,1.01,167.30,495.31,-230.36
123012,0.66,-0.28,1.04,166.33,495.31,-249.56
123015,0.65,-0.22,1.00,164.21,495.31,-261.35
123019,0.61,-0.16,1.09,162.52,495.31,-264.94
123022,0.58,-0.12,1.16,161.13,495.31,-263.38
123025,0.58,-0.08,1.16,156.87,495.31,-258.31
123029,0.59,-0.07,1.17,148.95,495.31,-251.21
123033,0.59,-0.02,1.18,133.51,495.31,-237.72
123036,0.55,0.01,1.23,121.25,481.25,-225.76
123039,0.56,0.05,1.21,106.03,440.09,-210.62
123042,0.57,0.07,1.21,88.55,396.30,-194.31
123045,0.57,0.09,1.20,71.17,354.38,-178.51
123048,0.57,0.10,1.19,53.77,311.88,-161.36
123051,0.56,0.12,1.20,37.51,270.50,-142.98
123055,0.55,0.12,1.17,22.26,231.25,-120.89
123058,0.54,0.12,1.18,10.55,191.85,-97.03
123061,0.52,0.09,1.18,1.39,155.37,-72.63
123064,0.50,0.07,1.19,-5.91,118.50,-48.52
123067,0.48,0.05,1.19,-13.68,76.50,-22.14
123086,0.45,-0.05,1.09,-63.48,-192.84,113.78
123089,0.44,-0.06,1.07,-67.93,-236.46,128.77
123093,0.42,-0.06,1.07,-71.31,-283.59,143.03
123096,0.41,-0.06,1.07,-74.70,-330.60,153.86
123099,0.41,-0.05,1.06,-78.87,-380.63,161.77
123102,0.41,-0.04,1.01,-85.15,-426.64,166.21
123105,0.41,-0.02,0.98,-92.83,-471.04,168.73
123108,0.39,-0.02,0.95,-102.12,-505.22,170.51
123111,0.39,-0.01,0.95,-111.24,-505.22,171.89
123114,0.39,-0.02,0.97,-119.62,-505.22,171.58
123117,0.37,-0.04,0.98,-127.54,-505.22,171.70
123121,0.38,-0.03,1.02,-137.76,-505.22,170.01
123124,0.39,-0.03,1.05,-146.12,-505.22,168.09
123127,0.39,-0.05,1.07,-153.71,-505.22,163.63
123130,0.40,-0.07,1.19,-159.02,-505.22,158.24
123133,0.39,-0.08,1.13,-163.13,-505.22,151.25
123137,0.41,-0.10,1.15,-165.59,-505.22,141.78
123140,0.43,-0.11,1.08,-168.58,-505.22,129.58
123143,0.52,-0.06,0.73,-175.67,-505.22,116.77
123146,0.53,-0.01,0.73,-173.64,-505.22,111.93
123149,0.52,-0.02,0.70,-161.71,-505.22,106.53
123152,0.53,-0.02,0.53,-143.25,-505.22,102.39
123156,0.62,-0.06,0.41,-113.30,-505.22,95.31
123159,0.68,-0.17,0.31,-88.75,-505.22,79.05
123162,0.72,-0.25,0.20,-64.55,-505.22,58.83
123165,0.75,-0.31,0.04,-43.10,-505.22,41.17
123168,0.78,-0.35,-0.03,-25.28,-505.22,26.41
123171,0.81,-0.37,-0.11,-9.57,-505.22,16.19
123174,0.84,-0.35,-0.12,3.22,-505.22,9.00
123177,0.89,-0.33,-0.12,13.20,-505.22,2.54
123180,0.93,-0.28,-0.15,23.46,-505.22,-0.68
123184,0.97,-0.24,-0.10,33.24,-505.22,-3.23
123187,1.02,-0.21,-0.01,42.90,-505.22,-8.94
123191,1.11,-0.20,0.08,50.44,-505.22,-22.57
123194,1.15,-0.21,0.06,47.60,-505.22,-35.43
123197,1.20,-0.23,0.04,38.27,-505.22,-48.10
123200,1.20,-0.24,-0.02,26.65,-434.89,-58.14
123204,1.20,-0.25,-0.04,14.72,-349.13,-65.23
123207,1.21,-0.27,-0.04,7.60,-253.86,-70.20
123210,1.20,-0.27,-0.04,6.11,-156.79,-71.23
123213,1.18,-0.25,-0.02,9.63,-59.16,-69.44
123216,1.17,-0.23,0.01,15.97,35.27,-65.07
123220,1.15,-0.23,0.02,23.07,122.46,-57.36
123223,1.14,-0.23,0.03,29.75,211.91,-46.36
123227,1.11,-0.20,0.04,37.63,327.76,-27.85
123230,1.09,-0.16,0.08,42.82,399.36,-16.65
123233,1.07,-0.12,0.10,47.91,466.08,-7.06
123236,1.05,-0.09,0.12,51.86,495.31,-0.01
123239,1.01,-0.07,0.16,55.86,495.31,5.51
123242,0.99,-0.05,0.20,59.59,495.31,8.01
123245,0.99,-0.04,0.23,63.16,495.31,6.10
123248,0.98,-0.04,0.19,67.30,495.31,1.52
123251,0.99,-0.05,0.17,72.21,495.31,-5.01
123254,0.98,-0.05,0.18,76.88,495.31,-13.44
123257,0.97,-0.03,0.20,81.43,495.31,-23.36
123260,0.95,-0.02,0.22,84.46,495.31,-34.66
123265,0.92,0.02,0.25,89.77,495.31,-53.90
123268,0.91,0.03,0.28,93.14,495.31,-71.81
123271,0.89,0.04,0.31,93.13,495.31,-91.27
123274,0.86,-0.06,0.32,92.23,495.31,-119.82
123277,0.81,-0.12,0.87,98.44,495.31,-154.36
123280,0.78,-0.00,0.63,102.20,495.31,-177.15
123283,0.81,0.03,0.62,99.65,495.31,-192.46
123286,0.87,-0.02,0.52,94.14,495.31,-209.67
123290,0.80,-0.02,0.71,98.81,495.31,-227.70
123293,0.76,-0.09,0.87,96.07,495.31,-240.19
123296,0.75,-0.07,0.95,93.54,495.31,-260.11
123299,0.77,-0.05,0.94,87.01,495.31,-283.30
123304,0.71,0.01,0.92,73.54,495.31,-308.01
123307,0.68,0.02,0.95,63.89,495.31,-318.88
123310,0.66,0.07,0.91,55.91,495.31,-322.14
123313,0.63,0.10,0.97,49.69,495.31,-319.01
123316,0.62,0.08,1.01,46.47,495.31,-313.70
123319,0.64,0.04,1.03,45.36,495.31,-307.36
123322,0.65,0.01,1.05,45.65,495.31,-301.55
123325,0.65,-0.02,1.13,48.56,495.31,-295.39
123329,0.61,-0.05,1.27,55.01,495.31,-289.58
123332,0.62,-0.02,1.28,60.47,495.31,-280.75
123335,0.63,-0.00,1.29,62.43,495.31,-270.60
123339,0.67,0.02,1.30,57.98,495.11,-256.04
123342,0.69,0.03,1.29,50.87,436.69,-246.36
123345,0.69,0.05,1.28,40.27,372.96,-233.09
123349,0.70,0.07,1.27,28.81,311.57,-216.52
123352,0.69,0.11,1.26,17.25,253.98,-195.62
123355,0.68,0.16,1.22,4.21,198.75,-169.85
123358,0.68,0.19,1.21,-10.38,143.88,-139.20
123361,0.67,0.20,1.20,-26.51,92.18,-107.30
123364,0.67,0.20,1.19,-43.48,37.88,-71.93
123367,0.65,0.22,1.18,-59.60,-15.12,-33.10
123370,0.64,0.24,1.17,-74.55,-68.61,10.93
123373,0.63,0.26,1.13,-84.80,-116.18,55.22
123378,0.62,0.23,1.08,-93.09,-179.48,119.90
123381,0.60,0.22,1.05,-95.15,-220.14,162.47
123384,0.57,0.20,1.03,-96.14,-262.32,203.14
123387,0.54,0.19,1.03,-97.10,-311.31,243.28
123390,0.51,0.16,1.04,-98.47,-363.01,277.37
123393,0.49,0.12,1.02,-100.80,-418.92,306.77
123397,0.44,0.07,1.02,-105.47,-483.45,334.27
123400,0.44,0.05,1.01,-111.88,-505.22,355.37
123404,0.43,-0.00,1.01,-118.89,-505.22,368.85
123407,0.39,-0.06,0.99,-126.31,-505.22,377.74
123411,0.38,-0.08,0.97,-132.80,-505.22,381.02
123415,0.35,-0.10,0.97,-140.83,-505.22,375.93
123418,0.34,-0.11,1.08,-147.56,-505.22,366.57
123421,0.32,-0.11,1.03,-153.48,-505.22,353.95
123424,0.37,-0.12,0.95,-161.27,-505.22,334.91
123428,0.51,-0.12,0.60,-174.18,-505.22,308.87
123431,0.54,-0.05,0.39,-185.36,-505.22,287.29
123435,0.50,-0.09,0.44,-185.07,-505.22,270.48
123438,0.53,-0.08,0.39,-176.12,-505.22,255.34
123442,0.56,-0.08,0.26,-164.92,-505.22,243.08
123445,0.58,-0.14,0.28,-148.66,-505.22,223.84
123449,0.62,-0.20,0.23,-131.42,-505.22,199.34
123453,0.70,-0.25,0.19,-101.83,-505.22,160.61
123456,0.72,-0.26,0.13,-79.48,-505.22,135.22
123459,0.76,-0.29,0.12,-56.80,-505.22,109.80
123462,0.80,-0.33,0.03,-34.49,-505.22,86.44
123466,0.90,-0.36,-0.09,-16.34,-505.22,63.40
123469,0.96,-0.41,-0.18,-0.18,-505.22,42.47
123472,1.03,-0.43,-0.16,10.61,-505.22,23.58
123475,1.07,-0.44,-0.02,21.37,-505.22,6.12
123479,1.07,-0.41,0.03,31.24,-505.22,-10.19
123482,1.06,-0.36,0.09,38.15,-505.22,-25.20
123485,1.07,-0.32,0.10,41.45,-452.67,-38.66
123490,1.08,-0.24,0.19,39.82,-356.99,-57.79
123493,1.07,-0.20,0.20,36.06,-302.20,-69.50
123496,1.09,-0.17,0.18,29.51,-248.78,-79.97
123499,1.09,-0.14,0.14,21.82,-198.43,-87.87
123502,1.11,-0.13,0.12,13.95,-147.54,-94.72
123505,1.13,-0.15,0.09,5.02,-89.80,-100.97
123508,1.15,-0.18,0.06,-1.02,-32.26,-106.14
123511,1.19,-0.20,0.06,-3.93,33.39,-110.19
123515,1.19,-0.19,0.07,-2.76,96.09,-112.80
123518,1.20,-0.19,0.10,2.76,154.53,-113.46
123521,1.19,-0.19,0.14,12.73,213.76,-110.19
123524,1.15,-0.15,0.15,24.84,274.01,-101.64
123529,1.12,-0.10,0.19,39.65,350.01,-85.33
123532,1.10,-0.05,0.19,46.46,402.76,-70.98
123535,1.08,-0.04,0.18,50.41,452.92,-57.01
123538,1.06,-0.02,0.20,51.83,495.31,-45.85
123541,1.06,-0.02,0.23,53.89,495.31,-37.26
123544,1.06,-0.04,0.23,58.00,495.31,-32.34
123547,1.04,-0.05,0.23,62.91,495.31,-29.46
123550,1.05,-0.05,0.25,67.36,495.31,-30.46
123553,1.04,-0.02,0.25,70.36,495.31,-35.85
123557,1.03,-0.02,0.21,72.12,495.31,-42.74
123560,1.01,-0.01,0.21,71.40,495.31,-52.05
123564,0.98,-0.01,0.25,68.36,495.31,-66.66
123567,0.87,-0.09,0.53,72.24,495.31,-84.52
123570,0.85,-0.03,0.59,78.52,495.31,-97.73
123573,0.83,0.02,0.50,81.51,495.31,-104.97
123576,0.81,-0.02,0.47,83.45,495.31,-110.81
123579,0.83,-0.07,0.48,83.36,495.31,-119.12
123583,0.77,-0.06,0.53,83.53,495.31,-127.67
123586,0.66,-0.10,0.79,94.27,495.31,-134.28
123589,0.71,-0.11,0.77,101.80,495.31,-143.82
123593,0.69,-0.08,0.88,107.59,495.31,-153.72
123596,0.68,-0.07,0.86,112.23,495.31,-165.47
123599,0.69,-0.02,0.84,113.89,495.31,-176.74
123604,0.68,0.02,0.85,111.98,495.31,-189.96
123607,0.71,0.06,0.86,108.43,495.31,-196.37
123610,0.71,0.08,0.91,103.04,495.31,-201.27
123613,0.71,0.07,0.93,95.51,495.31,-206.30
123616,0.72,0.06,0.92,86.73,495.31,-211.49
123619,0.74,0.06,0.92,77.72,495.31,-215.18
123622,0.75,0.04,0.97,70.12,495.31,-218.25
123625,0.73,-0.00,1.07,65.27,495.31,-219.73
123629,0.74,-0.00,1.05,62.01,495.31,-216.39
123632,0.74,-0.01,1.09,57.82,495.31,-211.41
123635,0.74,-0.01,1.11,53.22,495.31,-204.42
123640,0.72,0.03,1.12,45.20,442.50,-190.55
123643,0.71,0.04,1.12,39.89,402.14,-177.23
123646,0.69,0.09,1.15,33.80,359.10,-159.21
123649,0.67,0.12,1.14,27.54,317.02,-138.43
123652,0.67,0.13,1.12,19.85,275.60,-114.91
123655,0.66,0.13,1.13,11.13,236.20,-91.17
123658,0.65,0.11,1.11,1.46,196.47,-67.94
123661,0.64,0.10,1.11,-9.44,157.77,-44.77
123664,0.62,0.10,1.12,-21.25,114.84,-19.94
123667,0.62,0.09,1.13,-33.68,71.30,3.51
123670,0.60,0.10,1.14,-47.68,23.92,27.23
123673,0.59,0.10,1.15,-62.89,-25.80,50.12
123692,0.53,0.00,1.13,-143.38,-372.24,178.36
123695,0.50,0.02,1.13,-149.27,-438.92,197.38
123698,0.47,0.04,1.14,-154.02,-505.22,215.77
123701,0.46,0.03,1.11,-156.90,-505.22,231.22
123704,0.46,0.02,1.08,-159.19,-505.22,244.64
123707,0.46,-0.00,1.06,-160.25,-505.22,254.36
123710,0.48,-0.02,1.05,-161.65,-505.22,259.34
123714,0.51,-0.04,1.02,-165.19,-505.22,258.45
123717,0.54,-0.07,1.02,-169.88,-505.22,252.70
123720,0.58,-0.09,1.08,-174.58,-505.22,239.90
123723,0.57,-0.12,1.04,-179.82,-505.22,223.72
123727,0.59,-0.10,0.96,-186.93,-505.22,198.88
123730,0.69,-0.06,0.64,-194.08,-505.22,178.48
123733,0.67,0.04,0.53,-201.13,-505.22,163.90
123736,0.61,0.04,0.60,-197.35,-505.22,154.24
123739,0.58,0.02,0.55,-184.84,-505.22,143.74
123742,0.59,0.07,0.31,-169.10,-505.22,136.97
123745,0.63,0.01,0.25,-148.73,-505.22,127.38
123748,0.67,-0.11,0.09,-124.57,-505.22,109.02
123752,0.74,-0.19,-0.01,-100.22,-505.22,86.10
123755,0.79,-0.25,-0.15,-77.71,-505.22,57.58
123758,0.84,-0.29,-0.15,-53.82,-505.22,27.93
123762,0.90,-0.37,-0.19,-21.79,-505.22,-11.67
123765,0.91,-0.40,-0.16,1.66,-505.22,-35.58
123768,0.95,-0.40,-0.08,24.30,-505.22,-56.78
123771,1.00,-0.39,0.03,41.28,-505.22,-77.12
123774,1.00,-0.36,0.07,53.48,-505.22,-95.46
123777,1.02,-0.33,0.08,59.66,-505.22,-108.84
123780,1.03,-0.30,0.10,58.36,-505.22,-116.92
123783,1.05,-0.27,0.06,51.98,-505.22,-120.14
123786,1.08,-0.23,0.05,41.97,-505.22,-119.72
123790,1.08,-0.19,0.03,29.59,-505.22,-113.44
123793,1.08,-0.14,0.03,14.95,-471.91,-101.03
123797,1.10,-0.08,-0.04,-2.03,-353.56,-76.86
123800,1.11,-0.06,-0.04,-8.64,-275.57,-59.70
123803,1.12,-0.05,-0.04,-11.86,-199.56,-44.14
123807,1.14,-0.06,-0.02,-13.56,-128.03,-30.45
123810,1.15,-0.07,-0.01,-15.60,-60.49,-19.76
123813,1.17,-0.08,0.04,-17.28,-3.97,-13.87
123816,1.17,-0.09,0.05,-18.23,38.90,-12.20
123820,1.17,-0.09,0.06,-17.91,70.99,-14.43
123823,1.16,-0.09,0.07,-16.72,95.60,-18.14
123826,1.15,-0.10,0.05,-15.12,116.14,-22.19
123829,1.14,-0.11,0.05,-12.38,135.24,-26.08
123833,1.13,-0.11,0.03,-7.91,154.50,-28.19
123837,1.14,-0.14,0.01,-0.76,184.06,-29.61
123840,1.14,-0.15,0.02,4.99,207.72,-29.15
123843,1.14,-0.14,0.02,11.10,233.11,-27.32
123846,1.12,-0.13,0.07,17.83,258.90,-22.19
123849,1.09,-0.11,0.13,24.93,280.11,-16.40
123852,1.07,-0.09,0.15,31.02,296.87,-9.27
123855,1.05,-0.06,0.18,35.77,311.42,-0.86
123858,1.03,-0.05,0.21,39.91,323.79,8.07
123861,1.02,-0.05,0.22,42.00,333.94,16.27
123864,1.01,-0.06,0.24,43.62,343.63,23.48
123867,1.00,-0.08,0.26,44.40,351.65,29.40
123870,1.00,-0.08,0.26,44.32,360.85,34.61
123875,0.99,-0.08,0.28,45.53,373.10,38.93
123878,0.98,-0.08,0.30,47.16,381.27,39.78
123881,0.98,-0.08,0.30,48.44,390.73,39.00
123884,0.97,-0.10,0.28,50.03,404.37,36.88
123887,0.96,-0.11,0.28,51.30,421.17,33.80
123890,0.94,-0.13,0.29,52.11,439.07,29.80
123893,0.94,-0.12,0.32,52.46,455.17,23.43
123896,0.93,-0.11,0.34,51.75,466.61,14.76
123899,0.93,-0.11,0.34,50.30,476.05,3.99
123902,0.93,-0.13,0.34,48.11,482.95,-7.62
123905,0.93,-0.11,0.35,45.59,490.01,-19.39
123909,0.93,-0.11,0.34,42.20,495.31,-35.99
123912,0.93,-0.10,0.34,40.14,495.31,-47.12
123915,0.94,-0.09,0.34,39.05,495.31,-57.36
123918,0.93,-0.08,0.35,40.23,495.31,-66.54
123921,0.95,-0.08,0.35,42.73,493.76,-75.43
123924,0.95,-0.08,0.36,45.43,486.95,-83.72
123927,0.99,-0.11,0.42,48.07,473.22,-95.44
123931,0.99,-0.10,0.51,51.51,453.22,-106.28
123934,1.00,-0.05,0.41,52.14,437.54,-112.66
123937,1.03,-0.05,0.41,51.11,422.88,-118.34
123940,1.05,-0.07,0.46,50.53,408.17,-123.27
123944,1.07,-0.07,0.42,48.78,398.11,-125.43
123948,1.05,-0.08,0.44,49.04,391.82,-123.72
123951,1.05,-0.05,0.47,50.75,389.04,-118.01
123954,1.02,-0.01,0.50,53.05,387.76,-109.53
123957,1.01,0.00,0.52,55.08,388.30,-98.13
123960,0.99,0.02,0.50,56.04,392.72,-83.47
123963,0.96,0.05,0.51,56.21,401.77,-65.35
123966,0.92,0.08,0.60,59.16,403.05,-46.81
123969,0.91,0.08,0.59,58.53,407.94,-27.68
123972,0.90,0.11,0.57,56.96,411.80,-9.01
123975,0.88,0.11,0.57,54.40,414.43,7.66
123978,0.86,0.09,0.62,51.08,410.96,20.56
123981,0.81,0.09,0.66,48.38,402.84,32.22
123986,0.81,0.07,0.66,44.11,389.60,43.45
123989,0.83,0.03,0.66,39.40,380.99,47.26
123992,0.84,-0.01,0.67,36.18,374.15,45.35
123995,0.84,-0.06,0.66,34.30,368.44,38.06
123998,0.84,-0.09,0.68,33.16,365.91,27.70
124001,0.83,-0.11,0.71,33.28,361.80,14.74
124004,0.81,-0.12,0.72,35.04,357.65,1.83
124007,0.80,-0.11,0.72,37.66,355.83,-11.26
124010,0.78,-0.11,0.73,39.53,354.69,-24.55
124013,0.77,-0.09,0.72,41.16,354.20,-38.01
124016,0.76,-0.08,0.72,41.60,356.29,-51.13
124019,0.75,-0.07,0.71,40.90,359.69,-64.33
124023,0.74,-0.06,0.72,39.31,363.72,-82.36
124026,0.73,-0.06,0.72,37.75,365.50,-94.46
124029,0.72,-0.05,0.72,36.81,368.30,-105.82
124032,0.71,-0.05,0.73,36.17,371.39,-117.32
124035,0.71,-0.06,0.75,36.38,373.77,-128.72
124039,0.70,-0.05,0.78,36.58,374.06,-139.06
124042,0.70,-0.06,0.80,37.33,372.76,-149.90
124045,0.68,-0.05,0.85,39.86,368.29,-159.06
124048,0.69,-0.03,0.82,42.03,366.30,-165.13
124052,0.70,-0.02,0.84,43.83,364.44,-169.27
124055,0.71,-0.01,0.84,44.21,363.08,-171.65
124059,0.70,0.01,0.82,44.18,363.14,-172.07
124062,0.70,0.03,0.85,43.98,362.27,-170.80
124065,0.69,0.05,0.85,43.68,359.62,-168.07
124068,0.68,0.09,0.85,42.56,357.51,-164.16
124071,0.68,0.10,0.87,41.60,354.14,-159.20
124075,0.68,0.11,0.88,38.59,350.38,-154.05
124078,0.68,0.10,0.89,35.30,347.11,-149.91
124081,0.68,0.09,0.89,31.54,343.04,-147.03
124084,0.67,0.06,0.91,28.73,338.37,-143.72
124087,0.67,0.05,0.92,27.46,332.32,-141.73
124090,0.65,0.04,0.96,27.59,323.59,-138.88
124094,0.65,0.03,0.96,29.91,313.89,-135.85
124098,0.62,0.04,1.01,32.87,296.00,-130.23
124101,0.62,0.04,0.99,34.62,282.49,-125.36
124104,0.62,0.04,0.98,35.01,269.82,-119.75
124107,0.62,0.04,0.98,35.33,258.67,-114.16
124110,0.62,0.05,0.97,35.08,248.00,-107.47
124113,0.62,0.06,0.95,34.61,241.53,-100.69
124116,0.61,0.07,0.95,34.17,234.59,-92.94
124119,0.61,0.08,0.95,33.59,224.32,-85.07
124122,0.59,0.08,0.96,34.20,215.14,-77.56
124125,0.60,0.08,0.96,35.39,204.90,-70.26
124128,0.59,0.08,0.95,37.10,197.40,-63.21
124132,0.59,0.08,0.97,38.41,189.94,-55.79
124136,0.59,0.09,0.95,39.48,184.59,-46.45
124139,0.58,0.09,0.95,39.30,182.73,-40.07
124142,0.58,0.10,0.94,39.01,181.60,-34.13
124145,0.56,0.10,0.94,37.80,181.21,-28.54
124148,0.55,0.10,0.94,36.99,178.81,-25.00
124151,0.55,0.10,0.94,36.49,177.45,-22.23
124154,0.55,0.08,0.96,36.50,174.49,-21.96
124157,0.54,0.07,0.97,36.81,171.33,-22.31
124160,0.54,0.06,0.97,37.88,168.52,-24.49
124163,0.53,0.05,0.99,38.73,163.92,-28.23
124166,0.52,0.04,1.01,40.15,158.84,-31.87
124170,0.52,0.04,1.02,41.68,150.64,-39.33
124173,0.51,0.04,1.01,42.38,144.43,-45.65
124176,0.51,0.05,1.00,42.88,137.89,-51.36
124179,0.51,0.05,0.99,43.43,131.85,-57.24
124182,0.51,0.05,0.99,43.48,127.39,-63.49
124186,0.51,0.05,0.98,43.88,123.11,-69.76
124189,0.51,0.05,0.98,44.65,120.09,-76.04
124192,0.51,0.05,0.99,45.72,117.27,-82.05
124195,0.51,0.06,0.99,47.49,112.92,-87.50
124198,0.51,0.07,1.00,48.96,107.42,-92.48
124201,0.50,0.08,1.01,50.24,100.12,-97.01
124204,0.50,0.08,1.02,50.96,92.46,-101.17
124208,0.50,0.07,1.01,50.03,83.30,-105.87
124211,0.50,0.07,1.01,48.85,76.87,-108.45
124214,0.50,0.08,1.02,46.85,71.07,-109.73
124217,0.50,0.08,1.01,45.25,65.65,-109.78
124220,0.49,0.10,1.01,43.83,61.19,-108.45
124223,0.47,0.11,1.00,43.39,56.73,-105.47
124226,0.46,0.12,0.99,43.20,52.20,-101.61
124229,0.45,0.13,1.00,43.48,46.69,-97.58
124232,0.43,0.13,0.99,43.69,41.72,-93.39
124235,0.43,0.14,0.99,44.50,36.11,-88.54
124238,0.42,0.13,0.98,44.91,30.53,-84.59
124241,0.43,0.14,0.98,45.86,26.56,-81.20
124245,0.42,0.14,0.98,47.45,23.40,-78.08
124248,0.42,0.13,0.98,48.27,20.98,-76.57
124251,0.42,0.13,0.99,49.98,19.40,-76.63
124254,0.42,0.13,0.98,51.14,17.25,-77.44
124257,0.42,0.14,0.99,51.77,14.78,-79.32
124260,0.41,0.15,0.99,52.17,12.38,-80.86
124263,0.40,0.15,0.98,51.46,8.85,-83.55
124266,0.40,0.15,0.98,50.61,6.14,-85.59
124269,0.39,0.17,0.98,49.01,2.84,-87.32
124272,0.39,0.18,0.98,46.30,-1.05,-88.23
124275,0.39,0.19,0.99,43.37,-5.77,-88.68
124278,0.40,0.19,1.00,40.67,-11.47,-87.96
124282,0.40,0.18,1.01,38.11,-17.83,-87.12
124301,0.40,0.20,1.01,23.85,-59.16,-53.67
124304,0.41,0.22,1.01,22.70,-66.98,-45.20
124307,0.40,0.23,1.00,21.02,-74.70,-35.20
124310,0.39,0.22,0.99,19.40,-82.87,-24.66
124313,0.39,0.22,0.98,17.30,-89.63,-13.47
124316,0.38,0.22,0.99,15.28,-97.31,-1.90
124319,0.38,0.22,0.98,13.51,-105.16,10.25
124322,0.37,0.23,0.97,12.07,-113.25,22.82
124325,0.36,0.22,0.96,11.74,-119.13,35.20
124328,0.37,0.22,0.96,11.62,-125.65,47.23
124331,0.37,0.21,0.94,12.20,-128.50,57.29
124334,0.39,0.20,0.92,12.62,-128.41,66.47
124338,0.40,0.19,0.89,12.58,-124.06,77.67
124341,0.40,0.20,0.89,13.22,-118.99,84.24
124344,0.39,0.19,0.91,14.24,-114.75,90.82
124347,0.39,0.19,0.94,16.52,-111.37,96.07
124350,0.39,0.18,0.96,18.44,-110.78,99.11
124353,0.39,0.17,0.98,19.95,-112.05,99.55
124356,0.41,0.17,0.99,20.88,-115.28,98.09
124359,0.43,0.15,1.01,19.94,-120.14,94.87
124362,0.45,0.14,1.00,18.36,-124.66,90.13
124365,0.46,0.13,1.01,16.32,-128.73,84.94
124368,0.47,0.13,1.01,14.26,-133.30,79.51
124373,0.49,0.13,1.00,12.58,-139.25,71.70
124376,0.49,0.15,0.97,12.38,-141.04,67.84
124379,0.49,0.16,0.94,12.99,-139.01,65.12
124382,0.50,0.17,0.93,13.97,-133.92,64.61
124385,0.50,0.18,0.92,15.37,-128.23,64.53
124388,0.49,0.19,0.91,16.87,-122.31,65.54
124391,0.49,0.20,0.92,18.59,-116.46,68.07
124394,0.48,0.20,0.91,20.18,-112.50,70.65
124397,0.46,0.20,0.93,21.57,-110.43,73.45
124400,0.45,0.20,0.94,21.92,-110.69,75.96
124403,0.45,0.20,0.94,21.07,-112.52,77.29
124406,0.45,0.19,0.94,19.22,-115.54,77.78
124410,0.46,0.17,0.92,15.10,-120.00,76.91
124413,0.47,0.17,0.93,11.51,-122.89,75.23
124416,0.47,0.17,0.92,7.40,-126.58,72.93
124419,0.49,0.16,0.93,3.86,-130.43,69.14
124422,0.50,0.15,0.92,1.34,-134.05,65.29
124425,0.51,0.14,0.92,-0.58,-136.44,60.96
124428,0.53,0.13,0.92,-1.25,-138.06,55.89
124431,0.54,0.12,0.92,-1.41,-138.81,51.99
124434,0.55,0.12,0.92,-0.66,-140.66,47.37
124437,0.55,0.11,0.94,-0.12,-142.58,45.22
124440,0.56,0.12,0.94,1.43,-145.10,43.34
124443,0.56,0.14,0.95,2.32,-148.46,43.06
124448,0.57,0.15,0.92,4.50,-148.41,45.05
124451,0.58,0.15,0.89,6.14,-145.68,47.78
124454,0.58,0.15,0.87,8.29,-139.41,51.32
124457,0.58,0.16,0.87,10.82,-132.78,55.51
124460,0.58,0.16,0.87,13.83,-125.19,59.32
124463,0.58,0.17,0.86,16.73,-118.23,62.48
124466,0.58,0.17,0.87,19.46,-112.70,65.35
124469,0.58,0.18,0.86,21.82,-108.28,66.73
124472,0.58,0.17,0.87,23.08,-104.52,67.03
124475,0.57,0.17,0.86,22.84,-102.12,66.67
124478,0.57,0.17,0.86,21.94,-100.66,65.17
124481,0.57,0.16,0.86,20.11,-101.15,62.87
124485,0.58,0.13,0.86,18.11,-104.26,58.33
124488,0.58,0.12,0.89,17.77,-108.47,54.64
124491,0.58,0.11,0.90,17.82,-114.32,50.68
124494,0.58,0.11,0.89,18.20,-120.87,47.70
124497,0.57,0.11,0.88,18.14,-129.92,45.14
124500,0.57,0.11,0.88,17.48,-139.41,43.37
124503,0.56,0.13,0.89,16.76,-150.37,43.17
124506,0.56,0.12,0.89,15.91,-162.15,43.23
124509,0.56,0.12,0.90,15.33,-175.16,44.12
124512,0.56,0.12,0.91,14.95,-189.27,46.10
124515,0.56,0.12,0.90,14.58,-203.41,48.45
124519,0.58,0.12,0.89,14.09,-217.95,51.45
124523,0.59,0.12,0.87,12.95,-235.59,54.79
124526,0.61,0.12,0.85,12.23,-246.63,57.28
124529,0.62,0.13,0.84,12.18,-257.28,60.70
124532,0.61,0.12,0.83,12.29,-266.79,64.30
124535,0.62,0.13,0.82,12.62,-277.28,69.20
124538,0.62,0.14,0.82,12.81,-287.33,73.64
124541,0.64,0.13,0.81,12.79,-297.37,78.82
124544,0.64,0.13,0.81,12.50,-306.28,82.06
124547,0.66,0.13,0.79,12.33,-314.49,84.41
124550,0.67,0.12,0.78,12.09,-320.11,85.87
124553,0.69,0.11,0.76,12.88,-322.31,86.74
124556,0.70,0.10,0.74,13.28,-321.65,86.47
124560,0.72,0.10,0.71,16.09,-315.41,85.29
124563,0.73,0.09,0.70,18.65,-308.92,83.64
124566,0.74,0.09,0.68,21.51,-298.67,80.85
124569,0.75,0.09,0.66,24.75,-286.24,77.40
124573,0.75,0.08,0.65,28.23,-271.94,73.87
124576,0.75,0.10,0.65,30.82,-257.04,69.81
124579,0.74,0.09,0.65,33.54,-245.22,64.77
124582,0.73,0.10,0.67,33.95,-235.99,59.61
124585,0.73,0.11,0.68,33.98,-230.60,54.38
124588,0.73,0.10,0.69,32.65,-228.63,47.67
124591,0.72,0.10,0.71,30.62,-230.58,42.64
124594,0.72,0.09,0.72,28.78,-235.57,37.48
124598,0.71,0.09,0.71,27.01,-245.94,32.48
124601,0.73,0.09,0.73,26.64,-255.24,29.58
124604,0.75,0.09,0.71,27.01,-263.30,26.99
124607,0.77,0.09,0.70,26.65,-270.32,24.15
124610,0.80,0.09,0.68,26.06,-276.75,21.28
124613,0.83,0.09,0.66,24.62,-281.56,17.70
124616,0.85,0.09,0.64,23.74,-285.02,14.79
124619,0.86,0.08,0.65,23.42,-287.73,12.90
124622,0.86,0.09,0.64,23.86,-291.28,12.24
124625,0.86,0.10,0.64,24.87,-295.77,13.09
124628,0.87,0.12,0.64,25.86,-300.60,15.66
124631,0.87,0.12,0.64,26.58,-306.55,18.42
124636,0.87,0.13,0.63,27.72,-314.32,23.54
124639,0.87,0.12,0.63,28.41,-320.66,27.31
124642,0.88,0.12,0.58,29.22,-325.88,31.08
124645,0.88,0.12,0.57,29.98,-327.94,35.14
124648,0.88,0.11,0.56,30.69,-329.76,39.16
124651,0.87,0.13,0.54,30.65,-330.86,44.53
124654,0.87,0.13,0.55,31.25,-330.32,49.35
124657,0.86,0.12,0.54,31.43,-329.02,54.41
124660,0.86,0.11,0.54,32.33,-327.95,58.53
124663,0.86,0.11,0.54,33.05,-327.76,62.28
124666,0.86,0.11,0.55,34.35,-327.59,64.30
124669,0.86,0.11,0.54,35.31,-327.33,65.51
124673,0.86,0.10,0.51,37.40,-324.26,65.98
124676,0.86,0.10,0.49,38.91,-319.54,65.17
124679,0.87,0.09,0.46,39.25,-313.41,63.31
124682,0.89,0.10,0.42,38.95,-305.92,59.22
124685,0.93,0.10,0.39,37.13,-294.55,53.02
124688,0.96,0.09,0.35,34.76,-280.60,44.76
124691,1.00,0.07,0.34,32.56,-265.41,34.64
124695,1.02,0.06,0.33,31.28,-249.91,23.45
124698,1.02,0.06,0.35,31.05,-235.01,11.16
124701,1.04,0.05,0.35,31.68,-220.89,-1.06
124704,1.04,0.05,0.38,32.79,-209.25,-13.46
124707,1.04,0.06,0.41,34.01,-199.56,-24.14
124711,1.04,0.07,0.42,35.53,-189.07,-38.42
124714,1.04,0.08,0.44,35.94,-184.00,-46.95
124717,1.04,0.10,0.44,35.43,-178.93,-54.34
124720,1.03,0.11,0.46,34.79,-176.37,-59.73
124723,1.03,0.12,0.46,33.48,-172.83,-64.04
124726,1.04,0.14,0.46,31.95,-168.70,-65.79
124729,1.03,0.14,0.46,29.27,-164.79,-67.06
124732,1.03,0.15,0.46,27.39,-161.37,-66.84
124735,1.03,0.16,0.47,25.45,-158.11,-66.39
124738,1.03,0.17,0.47,23.59,-156.18,-64.45
124741,1.01,0.18,0.47,21.88,-153.66,-62.01
124745,1.00,0.19,0.47,19.07,-151.88,-56.75
124749,0.99,0.19,0.46,16.44,-150.44,-52.33
124752,0.98,0.19,0.46,13.83,-150.98,-47.23
124755,0.97,0.19,0.45,11.51,-151.27,-42.39
124758,0.96,0.18,0.45,9.94,-153.28,-37.90
124761,0.95,0.17,0.47,8.47,-156.34,-33.59
124764,0.93,0.16,0.47,7.91,-162.35,-29.68
124767,0.93,0.15,0.46,7.65,-170.00,-26.62
124770,0.93,0.14,0.46,7.37,-178.38,-24.08
124773,0.95,0.14,0.44,5.75,-186.57,-22.75
124776,0.96,0.14,0.41,3.69,-194.99,-22.20
124779,0.97,0.14,0.40,2.09,-201.63,-22.45
124783,0.99,0.15,0.39,-0.02,-210.63,-22.57
124786,0.99,0.14,0.38,-0.58,-217.45,-22.98
124789,1.00,0.15,0.37,-1.10,-224.06,-23.73
124792,1.01,0.16,0.37,-0.98,-229.57,-23.41
124795,1.01,0.16,0.36,-1.53,-235.21,-23.49
124798,1.02,0.17,0.35,-2.02,-240.61,-23.07
124801,1.02,0.18,0.35,-2.75,-245.42,-22.43
124804,1.01,0.18,0.35,-3.50,-249.74,-21.50
124807,1.02,0.18,0.34,-3.86,-255.01,-20.05
124810,1.01,0.17,0.34,-3.68,-260.61,-18.72
124813,1.02,0.17,0.34,-3.12,-265.39,-17.46
124816,1.03,0.17,0.33,-2.58,-271.02,-16.59
124820,1.03,0.16,0.29,-2.18,-273.02,-16.68
124823,1.03,0.15,0.27,-1.82,-270.89,-15.72
124827,1.03,0.15,0.27,-1.96,-266.66,-14.63
124830,1.03,0.16,0.26,-1.77,-261.65,-13.30
124833,1.02,0.17,0.25,-2.28,-255.44,-10.98
124836,1.02,0.17,0.24,-2.37,-248.06,-8.75
124839,1.01,0.17,0.22,-3.71,-239.68,-6.55
124842,1.03,0.17,0.20,-4.98,-230.78,-5.18
124845,1.05,0.17,0.20,-6.46,-222.40,-5.03
124848,1.07,0.15,0.17,-8.61,-213.82,-7.38
124851,1.09,0.13,0.17,-9.96,-205.99,-11.24
124854,1.09,0.12,0.17,-10.32,-199.05,-16.84
124858,1.09,0.11,0.17,-9.31,-192.67,-24.33
124861,1.07,0.12,0.18,-7.59,-190.84,-28.71
124864,1.08,0.12,0.18,-5.83,-188.73,-32.14
124867,1.07,0.12,0.18,-3.02,-186.66,-34.23
124870,1.06,0.13,0.16,-0.03,-185.15,-35.33
124873,1.07,0.14,0.18,2.15,-182.78,-36.83
124876,1.07,0.14,0.16,4.99,-178.49,-37.97
124879,1.08,0.14,0.16,8.85,-173.04,-39.78
124882,1.07,0.15,0.15,13.10,-167.71,-41.27
124885,1.06,0.15,0.15,15.95,-162.69,-42.40
124888,1.07,0.15,0.14,17.45,-157.21,-43.87
124907,1.04,0.14,0.19,21.48,-159.02,-53.47
124910,1.01,0.13,0.19,22.72,-165.41,-54.80
124913,1.00,0.14,0.17,24.30,-172.37,-55.81
124916,1.00,0.14,0.13,25.74,-177.31,-56.69
124919,1.00,0.14,0.11,27.14,-181.39,-57.00
124922,1.00,0.14,0.08,28.30,-182.57,-57.26
124925,1.00,0.12,0.06,30.41,-182.11,-58.43
124929,1.00,0.12,0.04,33.40,-179.54,-59.41
124932,1.00,0.13,0.05,36.32,-176.12,-60.97
124935,1.00,0.12,0.03,40.17,-171.88,-62.54
124938,1.00,0.11,0.03,44.35,-167.13,-64.68
124941,1.00,0.13,0.03,48.04,-161.71,-67.27
124945,1.01,0.13,0.04,51.80,-155.91,-72.14
124948,1.00,0.14,0.04,54.26,-152.57,-76.08
124951,1.01,0.14,0.04,55.30,-149.33,-81.10
124954,1.01,0.15,0.05,55.92,-146.99,-86.83
124957,1.01,0.14,0.07,56.12,-146.64,-94.37
124960,1.02,0.16,0.05,54.84,-146.03,-102.39
124963,1.04,0.15,0.05,51.95,-145.85,-111.68
124966,1.04,0.16,0.03,48.96,-145.83,-121.79
124969,1.05,0.14,0.05,75.36,-131.50,-125.91
124972,0.82,-0.10,-2.00,52.58,-287.83,212.54
124975,1.88,-0.33,0.50,37.34,-252.76,116.06
124980,1.37,-0.07,-0.59,44.23,-192.78,39.66
124983,1.23,-0.16,-0.23,55.95,-140.02,-5.27
124986,1.14,-0.31,-0.88,67.02,-228.03,103.52
124989,1.13,-0.15,-0.84,74.73,-152.06,31.57
124992,1.34,0.36,0.77,76.03,-187.85,66.74
124995,1.07,0.37,-0.34,80.52,-174.76,38.13
124998,1.26,0.15,0.47,83.31,-166.69,26.16
125001,1.05,0.11,-0.42,84.99,-173.13,13.25
125004,1.23,0.10,0.15,85.66,-164.76,4.99
125007,1.11,0.15,-0.37,84.30,-165.12,-2.11
125010,1.17,0.24,0.05,80.21,-148.72,0.41
125013,1.07,0.30,-0.26,71.16,-139.74,3.45
125017,1.61,2.00,-1.06,51.65,-45.39,124.67
125020,1.01,-0.23,-0.32,44.88,-24.92,54.44
125023,1.37,1.39,-0.59,37.95,12.70,55.32
125026,0.94,-0.16,-0.05,34.12,32.58,61.54
125029,1.13,0.68,-0.17,30.99,56.87,94.15
125032,0.95,0.62,0.98,31.13,-26.90,88.28
125035,1.04,0.65,-0.19,26.75,-13.08,86.53
125038,1.08,0.45,-0.03,16.90,7.60,86.50
125041,1.05,0.40,-0.04,11.66,-20.21,86.62
125044,1.06,0.25,-0.08,6.61,-0.90,86.51
125047,1.01,0.25,0.09,3.07,-11.62,89.31
125050,1.06,0.31,0.00,0.21,-9.31,90.10
125055,1.05,0.09,-0.07,-0.09,-8.61,85.61
125058,1.04,0.10,-0.03,-1.25,-10.11,86.22
125061,1.06,0.17,-0.04,-2.51,-9.97,86.32
125064,1.06,0.19,-0.05,-2.86,-10.60,86.32
125067,1.05,0.17,-0.09,-2.57,-12.34,86.32
125070,1.06,0.14,-0.06,-1.48,-9.07,85.45
125073,1.04,0.12,-0.08,0.03,-10.95,85.72
125076,1.01,0.12,-0.03,2.44,-15.92,86.30
125079,1.06,-0.03,-0.17,3.63,0.56,85.40
125082,0.90,0.10,0.20,9.57,-14.34,91.00
125085,1.06,0.08,-0.15,14.14,-2.35,97.55
125088,1.00,0.14,-0.16,20.44,-1.99,100.54
125092,0.92,0.01,0.02,30.21,-9.60,112.35
125095,0.89,-0.04,0.10,36.01,-13.04,123.16
125098,0.88,-0.09,0.12,42.26,-16.79,130.61
125101,0.92,0.05,-0.06,47.80,-16.28,141.67
125104,0.94,0.05,-0.04,50.43,-16.89,150.12
125107,0.92,0.08,-0.08,49.68,-21.74,154.04
125110,0.95,0.11,-0.07,50.32,-20.78,164.16
125113,0.96,0.10,-0.07,49.10,-19.92,170.79
125116,0.99,0.14,-0.13,48.99,-20.05,176.04
125119,1.02,0.22,-0.19,44.20,-19.28,177.87
125122,1.01,0.21,-0.21,43.04,-14.70,184.94
125125,1.02,0.10,-0.03,41.33,-16.75,188.35
125129,1.02,0.01,-0.00,38.70,-20.84,183.34
125132,1.05,0.11,-0.12,35.10,-15.04,187.26
125135,1.09,0.20,-0.17,32.43,-11.66,189.43
125138,1.03,0.05,0.06,26.88,-20.89,187.64
125141,1.01,-0.03,0.11,24.70,-27.59,188.33
125144,1.01,-0.03,0.17,23.16,-35.97,189.74
125148,1.01,-0.05,0.13,19.92,-44.06,189.83
125151,1.04,-0.05,0.13,18.69,-48.70,190.03
125154,1.03,-0.08,0.16,14.65,-54.73,188.36
125157,1.00,-0.10,0.17,11.11,-59.13,186.79
125160,1.04,0.01,0.09,8.49,-61.70,190.21
125163,1.02,0.08,0.01,5.27,-69.10,194.68
125167,1.08,0.09,-0.06,2.07,-72.89,194.65
125170,1.06,0.07,0.01,-2.73,-74.18,194.91
125173,1.05,0.05,0.01,-6.43,-76.52,195.80
125176,1.06,0.05,-0.02,-8.80,-78.24,195.23
125179,2.00,-1.91,-2.00,-25.09,139.62,84.90
125182,0.20,-0.40,-0.33,-28.38,33.98,-38.07
125185,0.86,-0.53,1.52,16.23,93.60,51.23
125188,1.28,0.50,-0.35,20.85,127.68,32.32
125191,0.63,0.33,-0.43,29.89,133.10,28.68
125194,1.08,0.32,0.30,30.53,129.91,22.79
125197,1.19,1.18,0.77,37.28,74.52,59.00
125200,0.91,-1.12,0.84,11.07,-6.03,-28.17
125204,1.20,-0.33,0.45,-14.17,-51.13,-36.31
125207,1.23,-0.36,-0.60,-20.58,11.68,-3.36
125210,1.20,-0.12,0.01,-23.47,13.47,8.90
125213,0.97,0.08,-0.10,-27.68,-12.41,-3.50
125216,1.10,0.09,-0.11,-22.58,9.40,7.54
125219,1.05,-0.04,-0.05,-21.60,-5.28,-2.42
125222,1.07,-0.02,-0.02,-18.69,2.72,3.11
125225,1.06,0.05,-0.10,-18.12,-1.51,0.57
125228,1.09,0.00,-0.04,-13.85,2.70,3.17
125231,1.05,-0.00,-0.05,-13.12,-1.53,0.38
125234,1.08,-0.01,-0.06,-12.61,0.18,1.52
125237,1.04,0.03,-0.10,-17.91,0.44,1.84
125242,1.08,-0.00,-0.03,-21.51,-0.03,1.66
125245,1.05,-0.01,-0.08,-21.25,0.55,3.14
125248,1.07,-0.02,-0.05,-21.80,0.35,1.37
125251,1.06,-0.03,-0.04,-21.83,-1.04,1.12
125254,1.06,-0.01,-0.05,-21.93,-1.34,0.50
125257,1.04,0.01,-0.06,-19.12,0.88,2.83
125259,1.08,0.01,-0.09,-19.82,-0.15,1.45
125262,1.05,0.03,-0.13,-22.64,0.01,1.26
125265,1.07,0.01,-0.09,-22.55,0.96,2.41
125268,1.05,0.01,-0.07,-20.69,2.11,3.29
125271,1.08,-0.01,-0.04,-16.99,-1.59,0.61
125274,1.05,0.01,-0.10,-14.95,1.27,2.30
125279,1.07,-0.01,-0.06,-14.25,-0.41,1.19
125282,1.06,-0.01,-0.08,-12.57,-0.28,1.05
125285,1.06,-0.01,-0.06,-11.19,-0.23,0.93
125288,1.06,0.00,-0.08,-9.13,-0.20,0.70
125291,1.06,-0.00,-0.07,-7.19,0.09,0.93
125294,1.06,-0.00,-0.07,-4.98,-0.08,0.68
125296,1.07,0.00,-0.07,-3.53,0.18,0.57
125299,1.06,0.00,-0.07,-2.38,-0.18,0.18
125302,1.06,-0.00,-0.06,-1.33,-0.11,0.18
125305,1.06,-0.01,-0.07,-0.41,-0.32,-0.01
125308,1.06,-0.00,-0.06,0.06,0.38,-0.10
125311,1.06,-0.01,-0.07,0.01,0.05,-0.02
125315,1.06,-0.01,-0.06,0.32,0.03,0.03
125318,1.06,-0.00,-0.07,-0.06,-0.06,0.38
125321,1.06,-0.01,-0.07,0.04,0.05,-0.13
125324,1.06,-0.01,-0.06,-0.12,-0.20,-0.05
125327,1.06,-0.01,-0.06,0.20,-0.34,-0.13
125330,1.06,-0.01,-0.08,0.35,-0.00,-0.40
125333,1.06,-0.00,-0.07,0.29,-0.06,0.15
125336,1.07,-0.01,-0.07,1.11,-0.44,-0.25
125339,1.06,0.01,-0.07,2.03,-0.57,-0.62
125342,1.07,-0.01,-0.07,4.61,0.24,-0.39
125345,1.06,-0.00,-0.04,7.27,-0.84,-0.62
125348,1.07,0.00,-0.07,10.43,-0.12,-0.86
125352,1.06,0.00,-0.07,14.12,0.38,-0.60
125355,1.06,0.01,-0.06,16.95,0.38,-0.68
125358,1.03,0.05,-0.14,15.78,6.29,4.93
125361,1.01,0.11,-0.23,7.37,25.08,22.30
125364,1.05,0.07,-0.20,6.85,47.10,39.05
125367,1.03,0.05,-0.13,10.70,56.20,46.61
125370,1.10,0.04,-0.16,8.50,62.11,49.81
125373,1.06,0.01,-0.14,4.69,62.76,50.24
125376,1.67,-0.88,0.93,-13.19,-60.84,-3.41
125379,1.48,0.40,1.43,11.45,3.43,4.83
125382,0.55,-0.16,-0.49,7.69,4.30,-6.37
125385,1.04,0.01,0.06,-0.02,-3.57,1.03
125388,1.07,-0.02,-0.21,0.88,7.79,1.11
125392,1.11,0.02,-0.24,-0.25,-1.05,1.58
125395,1.08,-0.06,0.18,0.38,-0.87,-1.76
125398,1.03,0.02,-0.22,-0.14,-0.17,0.79
125401,1.06,-0.01,-0.00,0.38,1.14,-0.66
125404,1.04,-0.02,-0.10,0.17,-1.34,-0.25
125407,1.09,0.00,-0.07,0.01,1.30,0.01
125410,1.06,-0.03,-0.01,0.07,-2.34,-0.48
125413,1.07,-0.02,-0.06,-0.02,0.73,0.38
125416,1.07,0.00,-0.06,0.06,-0.44,0.03
125419,1.06,-0.02,-0.06,0.14,-0.12,-0.11
125422,1.08,-0.01,-0.04,0.01,-0.41,0.16
125425,1.07,-0.01,-0.07,-0.00,-0.90,0.21
125429,1.06,-0.03,-0.06,0.17,-0.75,-0.19
125432,1.06,-0.02,-0.06,-0.23,0.64,0.06
125435,1.06,-0.02,-0.07,0.04,-0.34,-0.01
125438,1.06,-0.02,-0.06,-0.05,0.05,-0.33
125441,1.07,-0.02,-0.07,-0.08,-0.64,-0.14
125444,1.06,-0.01,-0.07,0.38,-0.23,-0.14
125447,1.06,-0.01,-0.05,-0.05,-0.20,-0.05
125450,1.06,-0.01,-0.07,0.15,-0.20,-0.10
125453,1.06,-0.02,-0.05,0.07,-0.11,0.15
125456,1.06,-0.01,-0.06,-0.34,0.01,-0.40
125459,1.07,-0.01,-0.05,0.11,-0.12,0.12
125462,1.06,-0.01,-0.05,-0.05,-0.46,-0.16
125465,1.07,-0.01,-0.06,0.03,-0.32,-0.17
125469,1.07,-0.02,-0.07,0.33,-0.24,0.28
125472,1.06,-0.02,-0.05,-0.23,-0.35,-0.10
125475,1.06,-0.02,-0.06,-0.00,-0.31,-0.07
125478,1.06,-0.02,-0.05,0.18,0.08,-0.54
125481,1.06,-0.01,-0.06,0.09,-0.03,-0.11
125484,1.06,-0.01,-0.05,0.11,-0.31,0.09
125487,1.06,-0.01,-0.06,-0.06,-0.00,-0.14
125490,1.06,-0.02,-0.05,0.18,-0.50,-0.25
125493,1.06,-0.01,-0.06,-0.18,-0.38,-0.05
125496,1.06,-0.01,-0.07,0.17,-0.38,-0.16
125499,1.06,-0.02,-0.05,0.01,-0.12,-0.23
125502,1.06,-0.02,-0.06,-0.14,-0.35,-0.10
125521,1.06,-0.01,-0.06,-0.12,-0.46,-0.14
125524,1.06,-0.00,-0.06,0.06,-0.26,-0.40
125527,1.07,-0.02,-0.05,0.14,-0.20,-0.14
125530,1.06,-0.02,-0.06,0.14,-0.43,-0.49
125533,1.06,-0.01,-0.06,0.03,-0.32,-0.43
125536,1.06,-0.02,-0.07,0.26,-0.20,-0.22
125539,1.06,-0.02,-0.06,0.32,-0.18,-0.49
125542,1.06,-0.01,-0.07,-0.11,-0.35,-0.33
125545,1.06,-0.02,-0.06,-0.05,-0.29,-0.13
125548,1.06,-0.01,-0.05,0.12,0.11,-0.22
125551,1.06,-0.01,-0.06,0.23,-0.63,-0.25
125554,1.06,-0.01,-0.05,0.04,-0.14,-0.30
125558,1.07,-0.02,-0.06,0.18,-0.14,-0.33
125561,1.07,-0.02,-0.06,0.12,0.18,-0.01
125564,1.05,-0.02,-0.07,-0.17,0.17,-0.28
125567,1.07,-0.02,-0.06,0.21,-0.21,-0.52
125570,1.05,-0.01,-0.08,-0.03,0.18,-0.08
125573,1.07,-0.02,-0.06,0.24,-0.44,-0.40
125576,1.06,-0.01,-0.06,0.12,-0.57,-0.36
125579,1.07,-0.01,-0.04,-0.08,-0.09,0.01
125582,1.06,-0.01,-0.06,0.04,-0.34,-0.37
125584,1.06,-0.01,-0.06,0.18,-0.09,0.01
125587,1.06,-0.02,-0.05,0.03,-0.18,-0.07
125590,1.06,-0.01,-0.07,0.11,-0.31,-0.13
125595,1.05,-0.00,-0.06,0.06,0.01,0.25
125598,1.08,-0.05,0.00,-0.05,-0.50,-0.57
125601,1.10,-0.02,-0.06,-0.22,0.73,0.01
125603,1.08,-0.00,-0.05,-0.15,-0.37,0.33
125606,1.07,-0.02,-0.03,0.01,-0.02,-0.20
125609,1.07,-0.01,-0.05,0.26,0.38,0.06
125612,1.08,-0.01,-0.05,0.17,-0.46,-0.26
125615,1.06,-0.02,-0.04,-0.18,0.20,-0.08
125618,1.07,0.00,-0.05,0.06,-0.53,-0.19
125621,1.07,-0.02,-0.04,0.14,-0.63,-0.68
125624,1.06,-0.01,-0.07,-0.25,-0.52,-0.16
125627,1.05,-0.01,-0.05,-0.06,0.03,-0.26
125631,1.07,-0.02,-0.07,0.11,-0.38,-0.10
125634,1.06,-0.01,-0.05,-0.06,-0.15,-0.52
125637,1.06,-0.01,-0.06,-0.11,-0.47,-0.16
125640,1.06,-0.01,-0.06,-0.00,-0.14,-0.04
125643,1.06,-0.02,-0.06,-0.20,0.01,-0.22
125646,1.06,-0.02,-0.06,0.04,-0.38,-0.22
125649,1.07,-0.01,-0.07,0.24,0.09,-0.33
125652,1.06,-0.02,-0.06,0.09,-0.11,0.01
125655,1.06,-0.01,-0.06,0.12,-0.47,-0.36
125658,1.06,-0.01,-0.05,0.20,0.21,-0.02
125661,1.07,-0.02,-0.06,-0.18,-0.24,0.33
125664,1.06,-0.01,-0.06,0.11,-0.17,0.03
125667,1.06,-0.01,-0.05,0.01,-0.28,0.09
125671,1.06,-0.01,-0.05,0.23,-0.11,-0.02
125674,1.06,-0.01,-0.05,-0.40,-0.34,-0.20
125677,1.06,-0.01,-0.06,-0.11,-0.31,-0.02
125680,1.06,-0.01,-0.05,0.17,-0.37,0.06
125683,1.06,-0.02,-0.06,0.15,-0.67,0.13
125686,1.06,-0.02,-0.05,0.14,-0.21,0.04
125689,1.06,-0.01,-0.06,0.01,-0.09,0.18
125692,1.06,-0.02,-0.06,0.36,0.17,-0.20
125695,1.06,-0.01,-0.06,-0.06,-0.05,-0.14
125698,1.06,-0.01,-0.06,0.29,-0.57,0.09
125701,1.06,-0.01,-0.06,0.01,0.06,0.32
125704,1.06,-0.02,-0.05,0.04,-0.11,-0.05
125708,1.06,-0.01,-0.06,-0.06,0.08,-0.19
125711,1.07,-0.01,-0.06,0.18,0.17,0.12
125714,1.06,-0.01,-0.06,-0.15,-0.53,0.18
125717,1.06,-0.01,-0.06,-0.08,-0.35,-0.28
125720,1.06,-0.01,-0.07,0.35,-0.03,0.16
125723,1.06,-0.01,-0.06,0.04,-0.00,0.03
125726,1.06,-0.02,-0.06,0.09,-0.49,-0.23
125729,1.06,-0.01,-0.06,0.24,0.12,-0.08
125732,1.06,-0.02,-0.07,0.24,-0.17,0.19
125735,1.07,-0.02,-0.06,0.21,-0.08,0.15
125738,1.06,-0.01,-0.06,-0.09,-0.12,-0.01
125741,1.06,-0.02,-0.06,-0.08,0.01,-0.39
125745,1.07,-0.02,-0.05,0.06,-0.31,0.12
125748,1.06,-0.01,-0.06,-0.00,0.27,0.12
125751,1.06,-0.02,-0.05,0.17,-0.57,0.01
125754,1.06,-0.02,-0.06,-0.08,0.11,0.13
125757,1.06,-0.01,-0.06,0.04,-0.67,-0.13
125760,1.07,-0.01,-0.05,0.12,-0.24,-0.02
125763,1.06,-0.01,-0.07,0.09,0.11,0.24
125766,1.06,-0.02,-0.05,0.14,-0.21,0.16
125769,1.06,-0.02,-0.05,-0.08,-0.37,-0.26
125772,1.06,-0.01,-0.06,0.07,0.01,0.30
125775,1.06,-0.01,-0.06,0.20,-0.02,-0.10
125778,1.06,-0.01,-0.05,0.01,0.24,-0.25
125781,1.06,-0.02,-0.05,0.26,-0.09,0.15
125785,1.06,-0.02,-0.06,0.03,0.11,0.07
125788,1.06,-0.01,-0.05,0.21,-0.18,0.04
125791,1.06,-0.01,-0.05,0.11,0.06,0.10
125794,1.07,-0.02,-0.05,0.03,-0.29,0.09
125797,1.06,-0.01,-0.06,-0.06,-0.09,-0.07
125800,1.06,-0.01,-0.05,0.07,0.09,0.01
125803,1.06,-0.02,-0.06,-0.12,-0.06,0.10
125806,1.06,-0.01,-0.07,0.27,0.29,-0.16
125808,1.06,-0.01,-0.05,0.12,-0.55,0.28
125811,1.07,-0.02,-0.06,-0.00,0.03,-0.02
125814,1.06,-0.02,-0.06,0.20,-0.43,0.03
125817,1.07,-0.01,-0.05,0.09,-0.00,0.09
125822,1.06,-0.01,-0.06,0.03,-0.03,-0.17
125824,1.06,-0.02,-0.06,-0.03,0.29,-0.13
125827,1.07,-0.02,-0.06,0.17,0.11,0.06
125830,1.06,-0.02,-0.05,-0.00,-0.18,-0.10
125833,1.06,-0.02,-0.06,-0.05,0.03,0.24
125836,1.06,-0.01,-0.06,-0.00,0.18,-0.11
125839,1.07,-0.02,-0.06,0.17,-0.23,-0.07
125842,1.06,-0.01,-0.06,0.11,0.17,0.01
125845,1.06,-0.01,-0.05,0.14,-0.05,0.15
125848,1.06,-0.02,-0.07,0.12,-0.03,0.09
125851,1.07,-0.01,-0.06,0.23,-0.46,-0.14
125854,1.06,-0.01,-0.05,0.15,-0.12,-0.08
125857,1.06,-0.01,-0.07,-0.23,-0.26,-0.14
125861,1.07,-0.01,-0.06,0.20,-0.05,-0.02
125864,1.06,-0.02,-0.06,-0.46,-0.14,0.06
125867,1.07,-0.02,-0.06,-0.12,-0.09,-0.39
125870,1.06,-0.01,-0.06,0.17,-0.40,0.06
125873,1.06,-0.01,-0.06,-0.09,-0.24,0.07
125876,1.06,-0.01,-0.06,0.30,0.12,0.15
125879,1.06,-0.01,-0.05,0.12,0.05,-0.07
125882,1.06,-0.02,-0.06,-0.00,-0.21,-0.01
125885,1.06,-0.01,-0.06,0.11,-0.20,-0.14
125888,1.06,-0.01,-0.06,0.03,0.18,-0.13
125891,1.06,-0.02,-0.06,0.04,-0.05,-0.11
125894,1.06,-0.02,-0.06,-0.17,-0.46,-0.13
125898,1.06,-0.01,-0.05,-0.06,-0.09,0.12
125901,1.06,-0.02,-0.06,0.06,0.12,-0.11
125904,1.06,-0.02,-0.06,-0.06,-0.23,-0.26
125907,1.06,-0.01,-0.06,-0.02,-0.17,-0.08
125910,1.06,-0.01,-0.06,-0.08,-0.00,-0.33
125913,1.07,-0.02,-0.06,0.04,-0.02,0.09
125916,1.06,-0.02,-0.06,-0.02,-0.26,-0.40
125919,1.07,-0.01,-0.06,-0.15,-0.18,-0.19
125922,1.06,-0.01,-0.06,0.29,-0.49,-0.10
125925,1.06,-0.02,-0.06,-0.05,-0.17,0.10
125928,1.06,-0.01,-0.06,0.09,0.20,-0.02
125931,1.06,-0.01,-0.06,-0.05,-0.66,0.03
125935,1.06,-0.02,-0.06,-0.14,-0.14,-0.01
125938,1.06,-0.02,-0.06,-0.00,0.11,-0.19
125941,1.07,-0.01,-0.06,-0.14,0.26,-0.14
125944,1.06,-0.01,-0.06,-0.02,-0.60,-0.36
125947,1.06,-0.02,-0.06,0.20,0.35,-0.01
125950,1.06,-0.02,-0.06,0.11,-0.17,0.18
125953,1.06,-0.01,-0.06,-0.15,-0.18,-0.14
125956,1.06,-0.01,-0.06,-0.05,-0.23,0.15
125959,1.06,-0.01,-0.06,0.04,0.01,0.12
125962,1.06,-0.01,-0.06,-0.12,-0.23,0.13
125965,1.06,-0.01,-0.06,0.17,0.08,-0.07
125968,1.06,-0.01,-0.06,0.01,-0.34,-0.19
125972,1.06,-0.01,-0.05,0.20,-0.02,0.33
125975,1.06,-0.02,-0.05,0.06,-0.29,-0.33
125978,1.07,-0.01,-0.05,0.30,-0.23,-0.05
125981,1.06,-0.01,-0.06,0.12,-0.37,-0.13
125984,1.06,-0.02,-0.06,-0.05,-0.14,-0.17
125987,1.06,-0.01,-0.06,0.23,-0.20,-0.11
125990,1.07,-0.02,-0.05,0.17,0.09,0.03
125993,1.06,-0.01,-0.07,0.14,-0.50,-0.07
125996,1.07,-0.01,-0.05,0.06,-0.28,0.12
125999,1.06,-0.01,-0.05,0.24,0.37,0.07
126002,1.07,-0.02,-0.06,-0.02,-0.29,-0.05
126005,1.07,-0.02,-0.06,0.03,-0.08,-0.04
126009,1.06,-0.02,-0.06,0.14,-0.26,0.09
126012,1.07,-0.01,-0.06,0.04,0.18,-0.08
126015,1.07,-0.02,-0.06,0.06,-0.34,0.28
126018,1.06,-0.01,-0.06,0.09,-0.00,0.13
126021,1.06,-0.01,-0.07,0.04,-0.21,-0.04
126024,1.06,-0.02,-0.07,-0.08,0.06,0.18
126026,1.05,-0.02,-0.05,-0.03,-0.17,0.06
126029,1.06,-0.02,-0.05,0.11,-0.02,0.15
126032,1.06,-0.02,-0.06,0.21,-0.32,-0.08
126035,1.07,-0.01,-0.06,0.18,-0.46,-0.23
126038,1.06,-0.01,-0.06,0.01,-0.12,0.28
126041,1.06,-0.01,-0.06,-0.03,0.12,-0.11
126044,1.07,-0.01,-0.05,0.12,0.27,-0.08
126049,1.06,-0.02,-0.05,-0.09,-0.15,0.21
126052,1.06,-0.01,-0.06,0.21,-0.24,-0.14
126055,1.06,-0.01,-0.07,-0.08,-0.24,-0.13
126057,1.06,-0.02,-0.07,0.32,0.05,0.21
126060,1.06,-0.02,-0.07,0.12,-0.50,-0.22
126063,1.07,-0.01,-0.06,-0.02,0.01,0.16
126066,1.07,-0.02,-0.05,0.07,-0.57,0.13
126069,1.06,-0.02,-0.06,0.07,-0.23,0.06
126072,1.06,-0.02,-0.05,-0.02,-0.41,-0.19
126075,1.07,-0.01,-0.06,0.15,0.05,0.10
126078,1.06,-0.01,-0.06,-0.02,-0.11,0.01
126081,1.07,-0.01,-0.06,0.01,-0.32,0.03
126085,1.06,-0.02,-0.06,0.24,-0.09,0.15
126088,1.06,-0.01,-0.05,0.18,-0.38,0.15
126091,1.06,-0.01,-0.06,-0.12,0.24,0.13
126094,1.07,-0.02,-0.06,0.06,-0.24,-0.28
126097,1.07,-0.02,-0.06,0.03,-0.26,-0.20
126100,1.06,-0.02,-0.05,0.12,0.21,0.22
126103,1.06,-0.02,-0.06,0.14,-0.72,0.21
126106,1.06,-0.02,-0.05,0.12,-0.38,-0.17
126109,1.06,-0.02,-0.06,-0.00,0.06,-0.16
126112,1.06,-0.01,-0.05,0.06,-0.28,0.25
126115,1.06,-0.02,-0.06,-0.02,-0.21,-0.14
126118,1.06,-0.01,-0.07,-0.18,-0.40,0.04
126137,1.07,-0.01,-0.06,0.49,0.06,0.12
126140,1.06,-0.02,-0.06,-0.20,-0.11,0.16
126143,1.06,-0.01,-0.06,0.15,0.09,0.38
126146,1.06,-0.01,-0.06,-0.11,-0.31,-0.23
126149,1.06,-0.01,-0.06,0.35,-0.46,0.13
126152,1.06,-0.01,-0.06,0.09,0.30,0.03
126155,1.07,-0.02,-0.07,-0.20,-0.03,0.24
126158,1.06,-0.02,-0.05,-0.23,-0.26,-0.16
126161,1.06,-0.01,-0.06,0.04,-0.14,0.19
126164,1.06,-0.01,-0.06,0.27,-0.08,-0.07
126167,1.06,-0.01,-0.06,-0.02,0.27,0.15
126170,1.06,-0.01,-0.06,0.18,-0.26,-0.25
126173,1.06,-0.02,-0.05,-0.05,0.06,0.32
126177,1.06,-0.01,-0.05,0.21,-0.17,0.32
126180,1.06,-0.01,-0.06,-0.14,0.38,0.22
126183,1.06,-0.01,-0.06,-0.11,-0.61,-0.01
126186,1.06,-0.02,-0.06,0.18,0.24,0.06
126189,1.06,-0.01,-0.06,-0.09,0.06,-0.19
126192,1.06,-0.01,-0.06,-0.02,0.09,-0.07
126195,1.06,-0.02,-0.05,0.07,-0.34,0.06
126198,1.06,-0.01,-0.05,0.07,-0.40,-0.10
126201,1.07,-0.02,-0.07,-0.14,0.05,-0.04
126204,1.06,-0.01,-0.06,0.21,-0.06,-0.02
126207,1.06,-0.01,-0.05,-0.14,-0.23,0.57
126210,1.06,-0.01,-0.06,0.14,-0.08,-0.22
126214,1.06,-0.02,-0.06,-0.20,-0.00,-0.02
126217,1.06,-0.01,-0.06,0.27,-0.50,-0.19
126220,1.06,-0.02,-0.06,0.43,0.08,0.04
126223,1.06,-0.01,-0.06,0.06,-0.17,-0.05
126226,1.06,-0.01,-0.06,-0.15,-0.12,0.09
126229,1.07,-0.01,-0.06,0.07,-0.21,0.01
126232,1.07,-0.01,-0.06,-0.05,0.23,0.07
126235,1.06,-0.02,-0.05,0.01,-0.06,-0.04
126238,1.06,-0.01,-0.06,0.17,0.05,0.01
126241,1.06,-0.02,-0.06,-0.03,0.11,-0.14
126244,1.07,-0.02,-0.06,-0.03,-0.17,-0.28
126247,1.07,-0.02,-0.07,0.29,-0.02,0.01
126251,1.06,-0.02,-0.07,0.03,-0.11,0.10
126254,1.07,-0.01,-0.07,0.11,-0.00,-0.04
126257,1.07,-0.01,-0.07,0.15,-0.31,-0.16
126260,1.06,-0.02,-0.06,0.15,-0.26,-0.04
126263,1.06,-0.02,-0.05,-0.22,0.08,-0.08
126266,1.06,-0.01,-0.05,0.33,-0.03,0.10
126269,1.06,-0.02,-0.06,-0.09,0.23,-0.19
126271,1.06,-0.02,-0.06,-0.22,-0.32,0.15
126275,1.07,-0.01,-0.06,0.29,0.24,-0.01
126278,1.07,-0.01,-0.06,0.09,-0.32,0.16
126280,1.06,-0.02,-0.06,-0.15,-0.14,0.01
126283,1.07,-0.02,-0.05,0.24,-0.32,-0.30
126286,1.06,-0.01,-0.06,-0.12,0.08,0.19
126291,1.06,-0.02,-0.06,-0.03,-0.58,-0.11
126294,1.06,-0.01,-0.05,-0.34,-0.35,-0.07
126296,1.06,-0.01,-0.06,0.14,0.01,-0.10
126299,1.06,-0.01,-0.06,0.07,-0.34,-0.22
126302,1.07,-0.01,-0.06,-0.08,0.09,-0.01
126305,1.06,-0.01,-0.06,0.07,-0.08,0.19
126308,1.07,-0.02,-0.06,0.11,-0.24,0.16
126311,1.06,-0.01,-0.06,0.01,-0.12,0.03
126314,1.07,-0.02,-0.05,-0.09,0.06,0.38
126317,1.07,-0.01,-0.06,0.04,-0.14,-0.23
126320,1.07,-0.01,-0.06,0.14,-0.31,-0.10
126323,1.06,-0.01,-0.06,0.01,-0.20,0.06
126327,1.07,-0.02,-0.06,-0.22,-0.08,0.04
126330,1.06,-0.01,-0.06,0.26,0.24,-0.23
126333,1.06,-0.02,-0.07,-0.12,-0.38,-0.25
126336,1.07,-0.01,-0.06,0.14,-0.03,-0.01
126339,1.07,-0.02,-0.07,0.18,0.15,0.16
126342,1.06,-0.01,-0.05,0.12,-0.06,0.19
126345,1.07,-0.02,-0.05,-0.09,-0.40,0.01
126348,1.06,-0.01,-0.06,0.26,0.26,0.18
126351,1.06,-0.01,-0.06,-0.05,0.20,0.04
126354,1.06,-0.01,-0.05,0.27,-0.21,-0.04
126357,1.06,-0.02,-0.06,-0.03,-0.18,-0.31
126360,1.06,-0.02,-0.06,0.06,0.08,0.15
126364,1.06,-0.01,-0.05,-0.14,-0.20,-0.04
126367,1.06,-0.01,-0.06,0.07,-0.23,-0.17
126370,1.06,-0.01,-0.06,0.29,-0.24,-0.23
126373,1.06,-0.01,-0.05,0.07,-0.40,0.03
126376,1.07,-0.02,-0.06,-0.22,-0.11,0.13
126379,1.06,-0.01,-0.06,-0.03,-0.06,0.06
126382,1.06,-0.01,-0.05,0.15,-0.37,-0.14
126385,1.07,-0.01,-0.07,-0.02,-0.41,-0.20
126388,1.06,-0.01,-0.06,0.11,-0.41,0.18
126391,1.06,-0.02,-0.06,-0.05,0.15,-0.04
126394,1.06,-0.02,-0.06,0.20,-0.24,-0.19
126397,1.07,-0.02,-0.07,0.23,0.03,0.19
126400,1.06,-0.01,-0.06,-0.09,0.12,0.22
126404,1.07,-0.02,-0.06,0.41,-0.20,0.01
126407,1.06,-0.01,-0.05,-0.34,-0.11,0.06
126410,1.06,-0.01,-0.06,0.03,-0.57,-0.02
126413,1.06,-0.01,-0.06,-0.00,-0.08,-0.26
126416,1.06,-0.01,-0.06,-0.03,0.18,-0.10
126419,1.07,-0.02,-0.05,-0.05,0.12,-0.17
126422,1.07,-0.01,-0.05,0.04,-0.14,-0.02
126425,1.07,-0.02,-0.05,-0.08,-0.35,-0.10
126428,1.06,-0.01,-0.06,0.11,-0.05,-0.23
126431,1.06,-0.01,-0.05,-0.08,-0.09,0.32
126434,1.06,-0.02,-0.06,0.43,-0.03,0.09
126437,1.07,-0.02,-0.06,0.26,-0.14,-0.05
126441,1.06,-0.01,-0.05,0.03,-0.32,0.09
126444,1.06,-0.01,-0.07,-0.03,-0.15,-0.01
126447,1.06,-0.01,-0.07,-0.05,-0.26,-0.20
126450,1.06,-0.01,-0.06,-0.06,-0.52,0.18
126453,1.06,-0.01,-0.06,-0.20,0.43,-0.22
126456,1.07,-0.01,-0.06,0.04,-0.34,0.07
126459,1.07,-0.02,-0.06,-0.18,-0.12,-0.13
126462,1.07,-0.01,-0.06,0.32,0.21,0.04
126465,1.06,-0.02,-0.06,0.06,0.08,0.22
126468,1.06,-0.02,-0.06,0.15,-0.03,0.19
126471,1.06,-0.01,-0.05,0.30,-0.26,-0.17
126474,1.06,-0.02,-0.06,-0.02,-0.08,-0.25
126478,1.06,-0.01,-0.06,-0.09,-0.12,-0.19
126481,1.06,-0.02,-0.06,0.04,-0.09,-0.33
126484,1.06,-0.02,-0.06,0.03,-0.52,-0.13
126487,1.06,-0.02,-0.06,0.21,-0.15,0.16
126490,1.06,-0.01,-0.06,0.07,-0.28,-0.14
126493,1.07,-0.02,-0.06,-0.18,-0.32,-0.07
126496,1.06,-0.02,-0.07,0.36,0.06,-0.14
126499,1.06,-0.01,-0.06,0.29,-0.21,-0.11
126502,1.05,-0.01,-0.06,0.21,0.15,-0.37
126504,1.06,-0.01,-0.06,0.33,-0.31,0.21
126507,1.06,-0.02,-0.06,-0.17,-0.17,0.13
126510,1.06,-0.01,-0.06,0.15,-0.21,-0.16
126515,1.06,-0.01,-0.05,0.15,-0.28,0.12
126518,1.06,-0.02,-0.07,0.06,-0.00,0.13
126521,1.06,-0.01,-0.05,0.15,0.09,0.32
126524,1.06,-0.02,-0.06,-0.12,-0.20,-0.07
126526,1.06,-0.01,-0.06,0.20,-0.37,-0.25
126529,1.06,-0.01,-0.06,-0.05,0.11,0.25
126532,1.07,-0.02,-0.06,0.11,-0.58,0.10
126535,1.06,-0.02,-0.06,-0.11,0.12,-0.26
126538,1.06,-0.02,-0.05,-0.08,-0.29,0.32
126541,1.06,-0.02,-0.06,0.20,-0.20,-0.25
126544,1.06,-0.02,-0.06,-0.20,0.08,-0.14
126547,1.06,-0.01,-0.05,-0.08,-0.00,0.13
126550,1.06,-0.01,-0.06,-0.11,-0.09,0.15
126554,1.06,-0.02,-0.05,0.09,0.35,0.03
126557,1.06,-0.01,-0.06,0.29,0.03,0.10
126560,1.06,-0.01,-0.06,0.09,-0.23,0.10
126563,1.07,-0.02,-0.07,0.12,-0.08,-0.16
126566,1.06,-0.01,-0.05,0.11,0.03,0.16
126569,1.06,-0.01,-0.06,0.30,-0.17,-0.01
126572,1.06,-0.02,-0.06,0.12,-0.02,-0.01
126575,1.06,-0.01,-0.07,0.14,-0.37,-0.11
126578,1.06,-0.01,-0.06,0.29,-0.11,-0.45
126581,1.06,-0.01,-0.06,-0.03,0.15,0.15
126584,1.06,-0.02,-0.06,0.01,-0.20,0.04
126587,1.06,-0.01,-0.05,0.01,-0.09,-0.04
126591,1.06,-0.02,-0.05,0.09,-0.11,-0.04
126594,1.07,-0.01,-0.06,0.11,-0.34,0.04
126597,1.06,-0.01,-0.06,0.01,0.01,0.04
126600,1.07,-0.01,-0.06,0.07,-0.14,-0.22
126603,1.06,-0.01,-0.06,0.07,-0.37,-0.23
126606,1.06,-0.01,-0.06,0.18,-0.29,0.16
126609,1.07,-0.02,-0.06,0.12,0.08,-0.17
126612,1.07,-0.01,-0.06,0.33,0.44,-0.02
126615,1.06,-0.02,-0.06,0.07,-0.12,-0.16
126618,1.06,-0.01,-0.07,-0.02,-0.60,0.27
126621,1.06,-0.02,-0.06,-0.03,0.05,0.01
126624,1.06,-0.02,-0.06,0.03,-0.00,-0.02
126628,1.06,-0.02,-0.06,0.14,0.15,-0.08
126631,1.06,-0.01,-0.06,-0.32,0.05,0.24
126634,1.07,-0.01,-0.06,0.06,-0.43,-0.10
126637,1.06,-0.01,-0.06,0.04,-0.00,-0.17
126640,1.06,-0.02,-0.05,-0.08,0.15,-0.02
126643,1.06,-0.02,-0.06,0.15,0.11,0.15
126646,1.06,-0.01,-0.06,-0.00,0.15,-0.20
126649,1.06,-0.00,-0.06,-0.09,-0.05,-0.07
126652,1.07,-0.02,-0.05,-0.08,-0.05,0.36
126655,1.06,-0.02,-0.06,-0.18,0.01,0.01
126658,1.06,-0.02,-0.05,0.14,0.08,0.15
126661,1.06,-0.01,-0.06,0.21,0.12,-0.14
126664,1.06,-0.02,-0.06,0.14,-0.14,-0.17
126668,1.06,-0.01,-0.06,-0.18,-0.24,0.15
126671,1.06,-0.02,-0.06,-0.18,0.06,-0.10
126674,1.07,-0.01,-0.06,-0.09,-0.21,-0.22
126677,1.06,-0.02,-0.06,0.20,-0.44,-0.17
126680,1.06,-0.01,-0.06,0.11,-0.28,0.04
126683,1.06,-0.02,-0.05,0.01,-0.24,0.19
126686,1.06,-0.01,-0.05,0.26,-0.02,-0.10
126689,1.06,-0.01,-0.05,0.23,-0.31,-0.20
126692,1.07,-0.02,-0.05,-0.09,0.03,0.15
126695,1.06,-0.01,-0.06,0.24,-0.00,0.06
126698,1.06,-0.02,-0.06,0.18,-0.00,-0.22
126701,1.06,-0.01,-0.06,0.07,-0.57,-0.02
126705,1.06,-0.01,-0.06,-0.17,0.12,0.19
126708,1.06,-0.01,-0.05,0.04,-0.09,0.22
126711,1.06,-0.02,-0.07,0.11,-0.14,-0.48
126714,1.07,-0.02,-0.05,-0.00,-0.05,0.18
126717,1.06,-0.01,-0.05,-0.09,-0.41,-0.10
126720,1.06,-0.01,-0.06,0.17,-0.14,-0.04
126723,1.06,-0.01,-0.05,-0.03,-0.17,0.10
126726,1.07,-0.02,-0.06,0.17,-0.43,0.06
126728,1.06,-0.01,-0.06,-0.03,0.40,-0.05
126731,1.06,-0.01,-0.06,0.21,-0.12,0.01
126734,1.06,-0.01,-0.06,0.20,-0.26,0.04
126737,1.06,-0.01,-0.05,0.24,-0.14,0.13
126756,1.06,-0.01,-0.06,-0.05,0.05,0.13
126759,1.06,-0.02,-0.06,0.12,-0.14,0.09
126762,1.06,-0.01,-0.05,-0.02,-0.17,-0.02
126765,1.06,-0.01,-0.07,-0.05,0.17,-0.26
126768,1.06,-0.01,-0.06,0.17,-0.35,-0.20
126771,1.07,-0.01,-0.07,0.15,-0.66,0.12
126774,1.07,-0.01,-0.06,0.14,-0.05,0.04
126777,1.06,-0.01,-0.06,0.04,0.14,0.15
126780,1.06,-0.01,-0.05,0.11,-0.31,-0.10
126783,1.06,-0.01,-0.05,0.09,0.01,-0.07
126786,1.06,-0.01,-0.06,0.09,0.09,-0.14
126789,1.06,-0.01,-0.06,0.01,-0.18,0.21
126792,1.06,-0.02,-0.05,0.01,-0.09,0.04
126796,1.06,-0.02,-0.06,0.11,-0.03,0.04
126799,1.07,-0.02,-0.05,0.03,-0.32,0.06
126802,1.05,-0.01,-0.06,0.11,-0.20,0.12
126805,1.07,-0.01,-0.06,-0.03,-0.14,-0.11
126808,1.06,-0.02,-0.06,0.01,-0.43,0.01
126811,1.06,-0.02,-0.07,0.14,-0.02,-0.20
126814,1.06,-0.01,-0.06,-0.08,0.09,-0.01
126817,1.06,-0.01,-0.05,-0.02,-0.06,0.03
126820,1.06,-0.02,-0.07,0.03,0.11,0.13
126823,1.06,-0.02,-0.06,0.23,-0.20,0.04
126826,1.06,-0.02,-0.06,-0.17,-0.28,-0.26
126829,1.06,-0.01,-0.06,0.17,0.20,0.16
126833,1.06,-0.01,-0.04,0.01,0.06,0.42
126836,1.06,-0.01,-0.05,0.09,-0.09,0.18
126839,1.06,-0.02,-0.06,0.06,0.37,-0.05
126842,1.06,-0.01,-0.06,0.03,-0.50,0.10
126845,1.06,-0.02,-0.06,0.27,0.06,-0.01
126848,1.06,-0.02,-0.05,-0.11,-0.20,0.19
126851,1.07,-0.01,-0.05,-0.09,-0.14,0.01
126854,1.06,-0.01,-0.07,0.26,0.17,0.03
126857,1.07,-0.02,-0.06,0.11,-0.21,0.30
126860,1.06,-0.02,-0.06,0.11,0.03,0.12
126863,1.06,-0.02,-0.06,0.17,-0.24,0.09
126866,1.06,-0.01,-0.06,0.24,0.15,-0.05
126869,1.06,-0.02,-0.06,-0.00,-0.47,0.42
126873,1.06,-0.01,-0.06,-0.17,0.27,-0.13
126876,1.06,-0.01,-0.06,0.04,-0.38,0.18
126879,1.07,-0.02,-0.06,0.23,0.05,-0.11
126882,1.06,-0.02,-0.05,-0.03,0.12,0.01
126885,1.06,-0.01,-0.06,-0.05,0.05,0.12
126888,1.06,-0.02,-0.06,-0.02,-0.21,-0.07
126891,1.06,-0.02,-0.07,0.01,0.21,0.18
126894,1.07,-0.02,-0.06,-0.18,-0.15,-0.20
126897,1.06,-0.02,-0.05,0.30,0.09,-0.10
126900,1.07,-0.02,-0.06,-0.18,-0.14,-0.14
126903,1.07,-0.02,-0.06,0.11,-0.23,-0.11
126906,1.06,-0.01,-0.06,-0.09,0.03,0.16
126910,1.07,-0.01,-0.05,0.06,-0.20,-0.07
126913,1.07,-0.02,-0.05,-0.26,-0.28,-0.01
126916,1.06,-0.01,-0.06,0.20,0.01,-0.34
126919,1.06,-0.01,-0.06,0.23,-0.06,0.01
126922,1.06,-0.02,-0.07,0.27,-0.57,0.16
126925,1.06,-0.02,-0.06,0.11,-0.29,0.10
126928,1.06,-0.01,-0.06,0.11,-0.24,-0.13
126931,1.06,-0.02,-0.06,0.21,-0.20,-0.11
126933,1.07,-0.02,-0.06,0.41,-0.00,0.01
126936,1.06,-0.01,-0.06,-0.02,0.03,0.04
126939,1.06,-0.02,-0.05,0.04,-0.35,0.03
126942,1.06,-0.01,-0.05,-0.00,-0.06,0.09
126947,1.07,-0.02,-0.05,-0.08,0.03,-0.05
126949,1.07,-0.01,-0.05,0.15,0.05,0.09
126952,1.06,-0.02,-0.06,-0.02,-0.05,-0.26
126955,1.07,-0.02,-0.06,-0.05,-0.03,0.27
126958,1.06,-0.01,-0.05,0.23,-0.23,-0.26
126961,1.06,-0.02,-0.06,-0.22,-0.18,0.03
126964,1.07,-0.01,-0.06,0.04,-0.35,-0.04
126967,1.06,-0.02,-0.06,0.11,0.03,0.10
126970,1.06,-0.01,-0.06,0.01,-0.15,-0.25
126973,1.06,-0.01,-0.06,-0.02,-0.03,-0.01
126976,1.06,-0.01,-0.06,-0.03,-0.28,0.16
126979,1.06,-0.02,-0.06,-0.11,0.35,0.15
126982,1.06,-0.01,-0.06,0.26,-0.08,-0.07
126986,1.07,-0.01,-0.06,0.26,-0.08,0.21
126989,1.06,-0.01,-0.05,0.06,0.21,-0.42
126992,1.06,-0.01,-0.07,0.21,-0.35,-0.04
126995,1.07,-0.01,-0.05,0.20,-0.17,-0.14
126998,1.07,-0.02,-0.05,-0.00,-0.02,-0.19
127001,1.06,-0.01,-0.06,0.11,-0.29,0.04
127004,1.07,-0.01,-0.05,0.21,0.21,-0.20
127007,1.06,-0.01,-0.06,0.07,0.08,0.09
127010,1.06,-0.01,-0.06,0.06,-0.29,0.19
127013,1.06,-0.02,-0.07,0.18,0.21,-0.05
127016,1.06,-0.01,-0.06,-0.31,-0.03,0.15
127019,1.06,-0.02,-0.06,0.12,-0.44,-0.01
127023,1.07,-0.02,-0.06,-0.17,-0.32,-0.16
127026,1.06,-0.02,-0.06,0.44,0.47,-0.14
127029,1.06,-0.01,-0.05,0.26,-0.24,0.10
127032,1.06,-0.01,-0.06,0.29,-0.05,0.01
127035,1.06,-0.02,-0.05,-0.05,-0.21,-0.52
127038,1.06,-0.01,-0.06,0.18,-0.57,0.13
127041,1.06,-0.01,-0.05,0.27,0.01,-0.02
127044,1.06,-0.01,-0.06,0.06,-0.31,-0.02
127047,1.06,-0.02,-0.06,0.21,-0.11,0.01
127050,1.06,-0.02,-0.06,0.24,-0.29,0.13
127053,1.06,-0.01,-0.06,0.07,-0.06,0.07
127056,1.06,-0.01,-0.05,0.06,-0.08,-0.07
127060,1.06,-0.02,-0.07,-0.22,-0.24,0.10
127063,1.07,-0.02,-0.06,0.36,-0.34,-0.08
127066,1.06,-0.01,-0.06,0.14,-0.14,0.09
127069,1.06,-0.02,-0.06,-0.06,-0.26,-0.23
127072,1.07,-0.02,-0.05,-0.08,-0.37,0.19
127075,1.06,-0.02,-0.06,0.15,0.37,0.09
127078,1.06,-0.01,-0.05,-0.12,-0.53,-0.08
127081,1.06,-0.01,-0.06,-0.14,-0.46,-0.07
127084,1.07,-0.01,-0.05,0.03,0.14,-0.04
127087,1.06,-0.01,-0.05,0.24,-0.20,0.04
127090,1.06,-0.02,-0.06,0.07,0.24,-0.13
127093,1.06,-0.01,-0.06,0.30,0.01,0.24
127096,1.07,-0.02,-0.05,0.24,-0.31,-0.39
127100,1.06,-0.02,-0.06,0.18,-0.06,-0.13
127103,1.06,-0.02,-0.06,-0.03,-0.29,-0.14
127106,1.06,-0.02,-0.06,0.12,-0.28,-0.19
127109,1.07,-0.01,-0.06,-0.12,-0.21,0.32
127112,1.06,-0.01,-0.05,0.14,0.12,0.12
127115,1.06,-0.01,-0.06,0.01,-0.24,0.19
127118,1.06,-0.01,-0.05,0.23,-0.14,0.10
127121,1.06,-0.01,-0.06,-0.09,0.06,-0.13
127124,1.06,-0.01,-0.05,0.09,-0.21,-0.16
127127,1.06,-0.01,-0.06,0.27,-0.21,0.03
127130,1.06,-0.01,-0.06,0.14,-0.20,0.06
127133,1.07,-0.01,-0.06,-0.03,-0.12,-0.36
127137,1.06,-0.02,-0.05,0.14,-0.00,0.04
127140,1.07,-0.01,-0.07,0.07,-0.11,-0.36
127143,1.06,-0.02,-0.06,0.15,-0.18,-0.04
127146,1.06,-0.01,-0.06,0.26,-0.20,-0.05
127149,1.06,-0.01,-0.06,-0.08,-0.06,0.09
127152,1.07,-0.01,-0.05,-0.15,-0.15,-0.05
127155,1.06,-0.02,-0.05,0.07,0.12,0.36
127158,1.06,-0.01,-0.05,0.38,-0.21,0.01
127161,1.06,-0.02,-0.06,0.14,-0.12,0.09
127164,1.06,-0.01,-0.06,-0.00,0.27,-0.17
127166,1.06,-0.02,-0.06,0.09,-0.28,-0.07
127169,1.07,-0.01,-0.06,0.14,-0.18,0.24
127174,1.06,-0.01,-0.06,0.36,0.34,-0.16
127177,1.07,-0.01,-0.07,0.03,-0.38,-0.02
127180,1.06,-0.01,-0.06,0.18,-0.14,-0.22
127183,1.06,-0.02,-0.05,0.40,-0.28,0.04
127186,1.06,-0.01,-0.06,-0.08,0.11,-0.01
127189,1.07,-0.01,-0.06,-0.00,-0.28,0.18
127191,1.07,-0.01,-0.05,0.20,-0.14,-0.01
127194,1.06,-0.01,-0.06,0.15,-0.00,-0.19
127197,1.06,-0.01,-0.06,-0.14,-0.05,0.18
127200,1.06,-0.02,-0.05,-0.00,0.12,-0.11
127203,1.06,-0.02,-0.06,-0.02,-0.43,-0.08
127206,1.06,-0.02,-0.06,0.07,-0.40,-0.19
127210,1.07,-0.01,-0.05,-0.03,-0.12,0.06
127213,1.05,-0.01,-0.05,0.14,-0.08,0.01
127216,1.06,-0.02,-0.06,0.33,-0.17,0.16
127219,1.06,-0.01,-0.06,-0.00,-0.34,0.15
127222,1.06,-0.01,-0.06,-0.06,0.23,-0.28
127225,1.06,-0.02,-0.06,0.14,-0.21,-0.04
127228,1.06,-0.02,-0.06,0.21,-0.21,-0.20
127231,1.07,-0.02,-0.06,-0.02,0.05,0.39
127234,1.07,-0.01,-0.05,0.21,-0.11,-0.08
127237,1.07,-0.02,-0.06,0.07,0.14,-0.02
127240,1.06,-0.02,-0.07,-0.00,-0.17,0.04
127243,1.07,-0.02,-0.06,-0.14,-0.09,-0.16
127246,1.06,-0.02,-0.05,0.15,-0.61,0.30
127250,1.07,-0.01,-0.06,-0.06,-0.21,-0.08
127253,1.06,-0.01,-0.06,0.17,-0.20,-0.33
127256,1.06,-0.02,-0.06,-0.06,-0.24,-0.22
127259,1.06,-0.02,-0.05,-0.09,0.05,0.06
127262,1.07,-0.02,-0.06,-0.03,0.35,-0.20
127265,1.06,-0.01,-0.04,0.20,-0.24,0.33
127268,1.05,-0.01,-0.06,-0.15,-0.03,-0.05
127271,1.06,-0.02,-0.05,0.24,-0.17,0.12
127274,1.05,-0.02,-0.06,-0.00,-0.00,-0.07
127277,1.07,-0.01,-0.07,0.11,0.11,-0.01
127280,1.07,-0.01,-0.05,-0.00,-0.03,-0.13
127283,1.06,-0.01,-0.06,-0.09,0.09,-0.01
127287,1.07,-0.02,-0.05,-0.12,-0.23,0.10
127290,1.07,-0.02,-0.05,0.18,-0.38,0.16
127293,1.06,-0.02,-0.05,-0.26,-0.41,-0.07
127296,1.06,-0.01,-0.06,-0.14,-0.37,-0.08
127299,1.06,-0.01,-0.05,0.03,-0.49,-0.14
127302,1.06,-0.01,-0.06,0.01,-0.18,-0.28
127305,1.07,-0.01,-0.06,0.03,-0.40,-0.08
127308,1.07,-0.02,-0.05,-0.09,-0.21,0.06
127311,1.06,-0.01,-0.05,-0.05,0.27,0.03
127314,1.07,-0.02,-0.06,0.49,-0.44,0.07
127317,1.06,-0.02,-0.05,0.32,-0.08,-0.42
127320,1.06,-0.01,-0.05,-0.06,-0.28,0.10
127324,1.07,-0.01,-0.06,0.32,-0.50,-0.07
127327,1.07,-0.01,-0.05,0.20,0.05,0.07
127330,1.07,-0.01,-0.06,0.30,-0.02,-0.05
127333,1.06,-0.02,-0.05,0.29,-0.12,-0.22
127336,1.06,-0.01,-0.06,0.17,0.05,-0.11
127339,1.06,-0.01,-0.06,0.12,-0.08,-0.22
127342,1.06,-0.02,-0.06,-0.03,-0.32,-0.01
127345,1.07,-0.02,-0.06,0.33,-0.03,0.25
127348,1.06,-0.01,-0.06,-0.15,0.15,-0.30
127351,1.07,-0.01,-0.06,-0.02,-0.34,0.10
127354,1.06,-0.01,-0.06,0.04,-0.03,-0.11
127357,1.06,-0.02,-0.06,-0.15,0.32,0.03
127376,1.06,-0.02,-0.06,0.07,0.24,0.03
127379,1.06,-0.02,-0.05,0.18,-0.43,0.01
127382,1.05,-0.01,-0.06,-0.06,-0.05,0.32
127385,1.06,-0.01,-0.06,-0.02,0.18,-0.11
127388,1.06,-0.01,-0.07,-0.08,0.11,0.15
127391,1.06,-0.02,-0.06,-0.29,0.20,0.07
127394,1.06,-0.02,-0.06,0.21,-0.08,0.06
127397,1.07,-0.02,-0.05,0.43,0.23,0.10
127400,1.07,-0.02,-0.05,0.29,-0.28,0.04
127402,1.07,-0.02,-0.05,-0.03,-0.09,0.33
127405,1.06,-0.01,-0.06,0.27,-0.28,-0.19
127408,1.07,-0.02,-0.07,0.01,-0.28,-0.11
127411,1.06,-0.01,-0.06,-0.03,0.06,0.50
127416,1.06,-0.01,-0.06,-0.00,-0.20,-0.08
127419,1.06,-0.01,-0.05,-0.23,-0.00,-0.08
127421,1.06,-0.01,-0.06,-0.03,0.09,0.48
127424,1.06,-0.01,-0.06,0.29,-0.32,0.06
127427,1.07,-0.01,-0.06,-0.00,0.41,-0.13
127430,1.06,-0.02,-0.06,0.17,0.09,0.27
127433,1.06,-0.01,-0.06,0.12,-0.32,-0.25
127436,1.06,-0.01,-0.06,0.04,-0.21,0.13
127439,1.06,-0.02,-0.06,-0.29,0.35,-0.07
127442,1.06,-0.02,-0.05,0.17,-0.57,-0.13
127445,1.06,-0.02,-0.07,0.29,-0.03,0.12
127448,1.06,-0.01,-0.06,0.01,-0.28,-0.02
127452,1.07,-0.01,-0.06,0.20,0.01,-0.11
127455,1.07,-0.02,-0.05,-0.11,-0.00,0.10
127458,1.06,-0.02,-0.06,0.15,-0.08,-0.16
127461,1.07,-0.01,-0.05,-0.03,-0.18,-0.08
127464,1.06,-0.02,-0.06,-0.00,-0.37,-0.10
127467,1.06,-0.02,-0.06,0.26,-0.12,0.06
127470,1.06,-0.02,-0.07,-0.17,0.24,0.06
127473,1.07,-0.01,-0.05,0.35,-0.32,0.07
127476,1.06,-0.01,-0.05,-0.11,0.17,-0.20
127479,1.06,-0.01,-0.06,0.24,0.27,-0.07
127482,1.06,-0.01,-0.05,-0.11,-0.08,0.28
127485,1.06,-0.01,-0.06,0.23,0.14,0.03
127489,1.06,-0.02,-0.06,0.03,-0.47,0.21
127492,1.06,-0.02,-0.05,0.38,-0.14,0.19
127495,1.06,-0.01,-0.06,0.07,-0.03,0.03
127498,1.07,-0.01,-0.06,0.07,-0.21,-0.16
127501,1.06,-0.01,-0.05,0.17,-0.21,-0.20
127504,1.06,-0.01,-0.06,-0.00,-0.43,-0.17
127507,1.07,-0.01,-0.07,0.21,0.03,0.16
127510,1.07,-0.01,-0.06,-0.06,-0.14,0.12
127513,1.06,-0.01,-0.06,0.11,-0.05,-0.37
127516,1.06,-0.01,-0.06,0.06,0.18,-0.04
127519,1.06,-0.02,-0.05,0.12,-0.08,0.12
127522,1.06,-0.02,-0.06,0.07,0.03,-0.39
127525,1.06,-0.02,-0.06,-0.15,-0.11,0.07
127529,1.06,-0.02,-0.05,-0.09,-0.14,0.16
127532,1.06,-0.02,-0.05,0.03,-0.00,-0.05
127535,1.06,-0.02,-0.06,-0.02,-0.31,-0.04
127538,1.07,-0.01,-0.06,0.21,-0.02,0.06
127541,1.06,-0.01,-0.05,-0.00,-0.11,0.09
127544,1.07,-0.01,-0.06,-0.09,-0.31,-0.07
127547,1.06,-0.02,-0.06,0.32,-0.00,0.13
127550,1.07,-0.01,-0.05,-0.14,-0.24,-0.11
127553,1.06,-0.02,-0.06,0.26,-0.28,-0.30
127556,1.06,-0.02,-0.06,0.20,-0.29,0.06
127559,1.06,-0.01,-0.06,-0.08,-0.29,-0.20
127562,1.06,-0.01,-0.05,-0.06,0.09,-0.02
127566,1.06,-0.01,-0.06,0.24,-0.12,0.12
127569,1.06,-0.02,-0.06,0.21,0.37,0.33
127572,1.07,-0.01,-0.06,-0.00,-0.18,-0.10
127575,1.06,-0.02,-0.05,-0.08,0.03,-0.07
127578,1.06,-0.01,-0.07,0.14,-0.61,0.24
127581,1.06,-0.02,-0.06,0.01,-0.02,-0.07
127584,1.06,-0.02,-0.06,0.14,-0.17,-0.31
127587,1.06,-0.01,-0.06,0.07,-0.61,-0.05
127590,1.07,-0.02,-0.05,0.35,-0.26,-0.05
127593,1.06,-0.01,-0.05,0.12,-0.15,-0.11
127596,1.06,-0.02,-0.06,-0.05,-0.46,-0.16
127599,1.06,-0.01,-0.05,-0.02,-0.00,0.06
127603,1.06,-0.01,-0.07,0.04,-0.09,0.04
127606,1.06,-0.01,-0.06,0.09,0.18,-0.11
127609,1.06,-0.01,-0.06,0.18,-0.12,0.01
127612,1.07,-0.01,-0.05,0.09,0.08,-0.05
127615,1.07,-0.01,-0.06,0.17,0.06,-0.16
127618,1.07,-0.01,-0.06,0.04,0.23,0.04
127621,1.06,-0.01,-0.05,-0.08,-0.14,-0.22
127624,1.07,-0.01,-0.06,0.04,-0.18,0.10
127626,1.07,-0.02,-0.06,0.23,0.05,-0.20
127629,1.07,-0.02,-0.06,-0.20,-0.46,-0.02
127632,1.06,-0.01,-0.06,0.17,-0.12,-0.07
127635,1.06,-0.02,-0.05,0.14,-0.35,0.01
127640,1.06,-0.02,-0.07,-0.00,-0.26,-0.13
127642,1.06,-0.02,-0.05,0.09,0.03,0.01
127645,1.06,-0.01,-0.06,-0.09,0.29,0.19
127648,1.06,-0.01,-0.06,0.09,-0.28,0.04
127651,1.06,-0.01,-0.06,0.07,-0.20,-0.01
127654,1.07,-0.02,-0.05,-0.06,0.14,0.18
127657,1.07,-0.02,-0.05,0.12,-0.34,-0.01
127660,1.06,-0.02,-0.07,0.11,-0.44,-0.13
127663,1.06,-0.01,-0.06,-0.12,-0.17,-0.11
127666,1.07,-0.01,-0.06,-0.00,0.21,-0.16
127669,1.06,-0.01,-0.06,-0.02,-0.32,-0.01
127672,1.06,-0.01,-0.05,-0.12,-0.05,-0.05
127675,1.06,-0.02,-0.05,0.07,-0.06,0.36
127679,1.06,-0.02,-0.05,0.12,-0.21,0.16
127682,1.06,-0.02,-0.06,0.07,0.37,-0.23
127685,1.06,-0.01,-0.05,-0.00,0.03,-0.01
127688,1.07,-0.01,-0.06,0.01,-0.12,0.06
127691,1.06,-0.02,-0.05,-0.03,-0.12,-0.07
127694,1.06,-0.01,-0.06,-0.00,0.27,-0.14
127697,1.06,-0.01,-0.05,0.15,-0.38,0.24
127700,1.07,-0.01,-0.06,0.15,0.03,-0.01
127703,1.06,-0.01,-0.06,-0.11,-0.11,0.19
127706,1.06,-0.01,-0.06,0.07,-0.08,-0.07
127709,1.06,-0.02,-0.06,0.26,-0.12,0.04
127712,1.07,-0.01,-0.05,0.27,-0.24,-0.31
127716,1.06,-0.01,-0.06,0.14,0.32,0.15
127719,1.06,-0.02,-0.06,0.27,-0.26,-0.22
127722,1.06,-0.02,-0.06,-0.00,-0.41,0.07
127725,1.06,-0.01,-0.06,0.11,-0.17,-0.01
127728,1.07,-0.01,-0.06,0.21,-0.38,0.10
127731,1.07,-0.01,-0.05,0.14,0.38,-0.05
127734,1.06,-0.02,-0.06,0.14,0.09,-0.16
127737,1.06,-0.01,-0.05,0.21,-0.35,-0.13
127740,1.06,-0.02,-0.06,-0.02,-0.40,-0.23
127743,1.06,-0.02,-0.07,0.18,-0.23,-0.07
127746,1.06,-0.01,-0.06,0.20,-0.31,-0.22
127749,1.06,-0.02,-0.06,-0.15,-0.35,-0.04
127753,1.06,-0.02,-0.06,0.32,0.23,-0.05
127756,1.07,-0.01,-0.07,-0.03,-0.11,0.15
127759,1.06,-0.02,-0.07,0.11,-0.31,0.04
127762,1.06,-0.02,-0.06,0.11,0.44,-0.10
